Ax,Ay,Az,Gx,Gy,Gz
0.4122061030515257,0.5733233233233233,0.7582582582582582,0.384629471371017,0.5164815040898547,1.0
0.4997498749374687,0.5025025025025024,0.7565065065065064,0.5018923208399463,0.4935905261872787,0.4983814988576312
0.7526263131565782,1.0,0.892142142142142,0.0,1.0,0.0
0.5012506253126563,0.5115115115115114,0.7632632632632632,0.4886774683014458,0.3800966217276802,0.8619530146327851
0.3989494747373686,0.5132632632632632,0.7187187187187187,0.4879746062751801,0.0289498927394178,0.7762788426321572
0.5505252626313156,0.5122622622622621,0.7329829829829829,0.2758811936445925,0.3208242496119434,1.0
0.4997498749374687,0.5027527527527527,0.7562562562562563,0.5018469749027679,0.4936969147321973,0.4984285888693165
0.3879439719859929,0.129129129129129,0.0202702702702703,0.3241205504299144,0.1846852817552365,0.3623646162164048
0.4994997498749374,0.5030030030030029,0.7567567567567567,0.5018923208399463,0.4935591328461552,0.4983971955281929
0.9997498749374686,0.5915915915915915,0.0,0.5796309538343478,0.8598461726284947,0.2499380853550064
0.5007503751875937,0.5030030030030029,0.7567567567567567,0.5018923208399463,0.4936672654655807,0.4983971955281929
0.4994997498749374,0.5025025025025024,0.7562562562562563,0.5018312782322061,0.4936672654655807,0.4984285888693165
0.3941970985492746,0.4954954954954954,0.7590090090090089,0.4955142403683485,0.4943230374801611,0.5524059507822174
0.5902951475737868,0.6549049049049048,0.2007007007007007,1.0,1.0,0.829202783542913
0.3791895947973986,0.5913413413413412,0.75,0.5111254512792787,0.5002738196975774,0.8950834539651533
0.4417208604302151,0.5255255255255254,0.7379879879879879,0.4505240943893123,0.5112771857613757,0.6752533268221218
0.4989994997498749,0.5030030030030029,0.7565065065065064,0.5018923208399463,0.4937126114027591,0.4984442855398782
0.4052026013006503,0.6173673673673673,0.7264764764764764,1.0,0.5233950154350594,0.6657760259518286
0.4997498749374687,0.5025025025025024,0.7552552552552552,0.5018155815616443,0.4937126114027591,0.4983675462615763
0.6015507753876937,0.5913413413413412,0.7917917917917918,0.5115980954706385,0.5490782566231229,0.3543819871984931
0.5002501250625312,0.502002002002002,0.7567567567567567,0.5019080175105081,0.4936201754538954,0.4983971955281929
0.4997498749374687,0.5025025025025024,0.7565065065065064,0.5018766241693845,0.4936969147321973,0.4983814988576312
0.546273136568284,0.5107607607607607,0.7705205205205206,0.5496276400927848,0.5938992273749935,0.347499869194412
0.5290145072536268,0.6754254254254253,0.6984484484484484,1.0,0.3863700577288662,0.5265535343669882
0.5657828914457228,0.4592092092092091,0.7640140140140139,0.4998011755062176,0.5081954061077489,0.9773217991872614
0.4352176088044021,0.5145145145145145,0.6826826826826826,0.4174390009941224,0.3034584997471092,1.0
0.4999999999999999,0.7282282282282281,0.6881881881881882,0.0,0.448403299788967,0.5074471981443047
0.4997498749374687,0.5022522522522521,0.756006006006006,0.5019080175105081,0.4936829621361424,0.4983971955281929
0.6118059029514756,0.5543043043043042,0.6989489489489489,0.4338908558173605,0.5593787606606554,0.0011284162059403
0.4662331165582791,0.3563563563563563,0.8353353353353352,0.64760102551581,0.6047787641488044,0.0
0.3821910955477738,0.5255255255255254,0.7487487487487487,0.5073094162582625,0.5163751155449361,1.0
0.4559779889944972,0.6921921921921921,0.7407407407407407,0.4789559970001918,0.5233950154350594,1.0
0.3346673336668334,0.2625125125125125,0.8215715715715715,0.6772520362069867,0.2555086593299266,0.353619826638994
0.4559779889944972,0.5337837837837837,0.7615115115115114,0.503601513856672,0.4865392329560319,0.7465353959921168
0.5060030015007503,0.4789789789789789,0.7565065065065064,0.496780438460331,0.4961839649789839,0.518373824929801
0.4469734867433716,0.4757257257257256,0.7580080080080079,0.6708582590648272,0.5486056124317631,0.0
0.5150075037518759,0.7870370370370369,0.6906906906906907,0.0143450128189476,0.4712785810209812,0.5540680537872578
0.3656828414207103,0.3083083083083082,0.1936936936936937,0.5658492770811169,0.0,0.6461046095889216
0.2008504252126063,0.2627627627627627,0.4624624624624625,0.0874897535622722,0.4619390620367302,0.0821180040811343
0.656328164082041,0.4289289289289288,0.9249249249249248,0.222713082302876,1.0,0.6154019219701066
0.4922461230615307,0.3093093093093092,0.7765265265265264,0.1497218201161553,0.4930568393881787,0.4690357012051555
0.5502751375687843,0.5242742742742742,0.8088088088088088,0.1869281615710623,0.5296056647539983,1.0
0.9997498749374686,0.2094594594594594,0.2582582582582582,0.4282138932975217,0.8581055862706455,0.0220660306608298
0.3026513256628313,0.8245745745745745,0.506006006006006,0.5793710867328252,0.5028079599560493,0.0
0.9147073536768384,0.4309309309309308,0.8806306306306306,0.5004429949247432,1.0,0.5219299928492945
0.5300150075037519,0.6534034034034033,0.7665165165165164,1.0,0.5067303835219841,0.521516647191168
0.5037518759379689,0.5027527527527527,0.7702702702702702,0.4972530826516909,0.4918499398294295,0.4982594136421508
0.4999999999999999,0.5030030030030029,0.7565065065065064,0.5018923208399463,0.4937283080733209,0.4983814988576312
0.4467233616808403,0.4882382382382381,0.7494994994994995,0.3465545808116923,0.179297835603537,1.0
0.7131065532766382,0.4887387387387386,0.2237237237237237,0.1446552836737185,0.0192284214381638,0.0008702931789246
0.6188094047023511,0.5260260260260259,0.7615115115115114,0.4936829621361424,0.522890977902576,1.0
0.4504752376188093,0.6228728728728727,0.7647647647647646,0.5141165390585486,0.508882571463453,1.0
0.7003501750875437,0.2672672672672672,0.2332332332332332,0.0,0.0,0.0359087500218009
0.4989994997498749,0.5027527527527527,0.7562562562562563,0.5019376667771247,0.4935748295167169,0.4983361529204527
0.4639819909954977,0.699199199199199,0.6556556556556556,1.0,0.5556255123218864,0.4336920313235781
0.4994997498749374,0.5025025025025024,0.7565065065065064,0.5018469749027679,0.4937579573399375,0.4984442855398782
0.0402701350675337,1.0,0.3973973973973974,0.4751260093831208,0.4265500462179744,0.7422327641836859
0.5050025012506253,0.7004504504504503,0.7347347347347346,1.0,0.4521582922022429,0.4907529169646127
0.3516758379189594,0.5943443443443442,0.7555055055055054,0.5031585189319288,0.4776584055670858,0.0
0.5952976488244122,0.5450450450450449,0.6981981981981982,0.0,0.5550761288522246,0.5186179953607618
0.520760380190095,0.9206706706706704,0.7675175175175175,0.8922911906796658,0.5633308334932068,1.0
0.4907453726863431,0.5115115115115114,0.7627627627627627,0.4778415333903064,0.4692659190400614,1.0
0.5062531265632816,0.4079079079079078,0.788038038038038,1.0,0.379425153042538,0.4898372778485096
0.5532766383191595,0.578078078078078,0.7992992992992993,0.4929644034393149,0.4801611524844341,0.4823743830336432
0.2543771885942971,0.412162162162162,0.5265265265265265,0.0332071786106702,0.0,0.998458238135933
0.3861930965482741,0.5758258258258258,0.7517517517517517,0.5000156966705618,0.5054170954183163,0.9581858136979612
0.5475237618809404,0.517017017017017,0.7665165165165164,0.4681654080262308,0.4469696705443257,0.0
0.4997498749374687,0.5027527527527527,0.7562562562562563,0.5019080175105081,0.4936358721244571,0.4984442855398782
0.588544272136068,0.4784784784784784,0.694944944944945,0.0,0.4122207300695886,0.5718471493102185
0.5707853926963481,0.5800800800800799,0.7334834834834835,0.5282784240542756,0.4974815564120899,1.0
0.4534767383691845,0.4817317317317316,0.6101101101101101,0.0,0.5426530861398399,0.4731569492648726
0.4997498749374687,0.6844344344344343,0.6226226226226226,0.9661370493747492,0.6019865008633168,0.4645795908401207
0.5567783891945972,0.4904904904904904,0.8013013013013013,0.5591502869002564,0.4465423722901442,0.4177145647662068
0.8144072036018009,0.1318818818818818,0.2199699699699699,0.0,0.0,0.0
0.4662331165582791,0.4544544544544543,0.7680180180180181,0.4701048188778625,0.5018766241693845,0.0
0.5435217608804401,0.4912412412412411,0.7464964964964964,0.6388876292795228,0.5730680014650226,0.0
0.4487243621810905,0.4824824824824824,0.7602602602602602,0.5398608228543523,0.5382423217119835,0.0
0.4999999999999999,0.5025025025025024,0.756006006006006,0.5019533634476865,0.4936201754538954,0.4983814988576312
0.4684842421210605,0.323073073073073,0.7102102102102101,0.0345954619181331,0.5197621082372639,0.4291748783508031
0.020760380190095,0.9404404404404404,0.897147147147147,1.0,1.0,0.7712436995308439
0.4022011005502751,0.588088088088088,0.7802802802802802,0.4554092470830354,0.5104696792646982,0.0
0.4969984992496247,0.7024524524524524,0.5905905905905906,0.3338873676683468,0.4797181575596909,0.5174738824842597
0.4997498749374687,0.5025025025025024,0.7562562562562563,0.5018469749027679,0.4936515687950189,0.4984582381359331
0.5005002501250625,0.5025025025025024,0.7565065065065064,0.5019690601182483,0.4935905261872787,0.4983518495910145
0.2728864432216107,0.301051051051051,0.2797797797797797,0.9990686642133352,0.0002598671015225,0.431173587735668
0.4299649824912456,0.3643643643643642,0.3373373373373373,0.3015051362994227,0.0,0.1444721558504979
0.5625312656328163,0.5685685685685685,0.7702702702702702,0.4174250483980676,0.4893018469749027,0.4406055426687828
0.5027513756878439,0.6526526526526526,0.5930930930930931,0.5155205190365733,0.5336641261314683,0.5208312259099709
0.2368684342171085,0.6483983983983983,0.7860360360360359,0.531848544569824,0.4231770061217015,0.5198388475155659
0.493496748374187,0.5350350350350349,0.755005005005005,0.5066989901808605,0.4946735964560406,0.6029945759282836
0.4989994997498749,0.5025025025025024,0.7567567567567567,0.5018312782322061,0.4937422606693758,0.4983971955281929
0.4994997498749374,0.5025025025025024,0.7562562562562563,0.5017859322950277,0.4936515687950189,0.4983971955281929
0.5832916458229114,0.4166666666666666,0.6974474474474475,0.0,1.0,0.2770113539250396
0.4999999999999999,0.5025025025025024,0.7565065065065064,0.5018609274988227,0.4936515687950189,0.4983814988576312
0.5002501250625312,0.5025025025025024,0.7565065065065064,0.50198475678881,0.4936829621361424,0.4983222003243978
0.5945472736368184,0.5090090090090089,0.7585085085085085,0.4757660847271395,0.5297277499694787,1.0
0.4344672336168083,0.5285285285285284,0.7274774774774775,0.5051729249873554,0.4021173064513316,0.202799239583515
0.4787393696848424,0.4369369369369368,0.720970970970971,1.0,0.3415944329141741,0.4826952927429059
0.3781890945472736,0.327077077077077,0.894144144144144,0.3454401172018069,1.0,1.0
0.0917958979489745,0.0077577577577577,0.1564064064064064,0.9845719169122904,0.0027015714111306,0.4317386678758916
0.1853426713356678,0.6586586586586586,0.9769769769769768,1.0,0.0,1.0
0.4772386193096548,0.6218718718718718,0.7547547547547546,0.5146955717948271,0.4499607583235956,0.0
0.4664832416208103,0.5017517517517517,0.7242242242242242,0.455515635627954,0.5222491584840504,0.0
0.6220610305152575,0.5110110110110109,0.7587587587587588,0.4991157542250204,0.5052653609362192,0.8109353471580305
0.4987493746873436,0.5030030030030029,0.7562562562562563,0.5017859322950277,0.4937736540104993,0.4983814988576312
0.4899949974987493,0.4664664664664664,0.7427427427427427,0.4804506688525733,0.5647365575457384,0.0
0.22136068034017,0.2234734734734734,0.0,0.0,0.0,0.5415386225299544
0.5017508754377188,0.4559559559559559,0.7317317317317317,0.694985785792769,1.0,0.0
0.5850425212606303,0.5057557557557557,0.725975975975976,0.503906726895373,0.4847393480649493,0.0897936759858381
0.0045022511255627,0.5382882882882882,0.4969969969969969,0.3554807541378167,0.0,0.109327310462703
0.5145072536268134,0.931181181181181,0.5315315315315315,0.0,0.344967473010447,1.5696670561837767e-05
0.0,0.4174174174174173,0.6639139139139139,0.0962641924062995,0.9479916982053472,0.4922789821581178
0.1538269134567284,0.1463963963963964,0.2917917917917918,0.9999389573922596,0.0018312782322061,0.4558661946038335
0.4699849924962481,0.6739239239239239,0.602102102102102,0.0,0.4270854770915813,0.4794582904581683
0.5392696348174086,0.5295295295295295,0.7344844844844844,0.5078291504613077,0.4858695083453965,0.5039224235659348
0.5622811405702851,0.822072072072072,0.8058058058058057,0.4979542006034498,0.6418019777804908,0.0677119486544465
0.0,0.8666166166166165,1.0,0.991347646371453,0.7671224514711268,0.9995273558086402
0.5497748874437218,0.4964964964964964,0.7525025025025025,0.518450564208103,0.725690217486091,0.0
0.4997498749374687,0.5025025025025024,0.7562562562562563,0.5019219701065629,0.4936358721244571,0.4984285888693165
0.1590795397698849,0.6869369369369368,0.7027027027027026,0.1719273767375342,0.9596054903465476,0.0014039799780247
0.4999999999999999,0.5027527527527527,0.7562562562562563,0.5018766241693845,0.4937736540104993,0.4984896314770567
0.4994997498749374,0.5025025025025024,0.7562562562562563,0.5018469749027679,0.4937126114027591,0.4983675462615763
0.4747373686843421,0.4384384384384384,0.7505005005005004,0.495864799344228,0.4980623332228753,0.5922964229031864
0.6925962981490744,0.0,0.1171171171171171,0.7931109056978913,0.9829691124404836,0.3777159600258123
0.5140070035017508,0.4737237237237236,0.8325825825825826,0.592097598409404,0.8668817691891797,0.0
0.5212606303151576,0.602102102102102,0.8933933933933933,0.4329752167012575,0.5897936759858381,1.0
0.4992496248124061,0.5030030030030029,0.7565065065065064,0.5018923208399463,0.4936829621361424,0.4983361529204527
0.5257628814407203,0.7224724724724724,0.6914414414414414,0.0,0.5281859881054118,0.4636639517240176
0.4994997498749374,0.5027527527527527,0.7562562562562563,0.5018312782322061,0.4937283080733209,0.4983971955281929
0.5012506253126563,0.3688688688688688,0.7502502502502502,0.6878891466243438,0.4378132793832953,0.4755829569039189
0.8054027013506753,0.592092092092092,0.0005005005005005,0.072197708286098,0.9762997715262396,0.5169541482812146
0.4994997498749374,0.5025025025025024,0.756006006006006,0.5017702356244659,0.4937736540104993,0.4984285888693165
0.4589794897448724,0.4647147147147146,0.7530030030030029,0.517686659574097,0.5032509548807925,1.0
0.5977988994497248,0.4196696696696695,0.7545045045045045,0.5015103685229433,0.5036782531349739,0.8022533442628669
0.461480740370185,0.5623123123123122,0.775025025025025,0.5228002860282192,0.47236339536425,0.3163227933097302
0.372936468234117,0.5102602602602602,0.9704704704704704,0.0,1.0,0.0
0.5015007503751875,0.5025025025025024,0.7562562562562563,0.5018609274988227,0.4936672654655807,0.4982908069832743
0.5220110055027514,0.6498998998998998,0.6996996996996997,0.0,0.5181296544988402,0.4676317212271308
0.4999999999999999,0.5022522522522521,0.7565065065065064,0.5019690601182483,0.4937126114027591,0.4984739348064949
0.4702351175587793,0.7179679679679678,0.7595095095095095,0.9710501072605822,0.4577288661771631,0.5620960287423479
0.4099549774887443,0.5305305305305305,0.7632632632632632,0.4777508415159495,0.4949788094947416,0.0
0.8999499749874936,0.0475475475475475,0.3891391391391391,0.326593648080646,0.6774351640302074,0.5512600938312084
0.48224112056028,0.6306306306306305,0.5885885885885885,1.0,0.4815197865252804,0.5052950102028358
0.1310655327663831,0.4034034034034033,1.0,0.0,1.0,0.0
0.5685342671335667,0.0525525525525525,0.0,0.4509531367180006,0.4340286377034027,0.6428850480492527
0.3031515757878939,0.7152152152152151,0.0,0.8923975792245844,0.0,0.0716186755498194
0.4442221110555277,0.5090090090090089,0.7169669669669669,0.2632610705129323,0.4033242060100808,1.0
0.6620810405202601,0.6333833833833833,0.7627627627627627,0.5152903012016673,0.4906151350785706,0.0
0.7658829414707353,0.7577577577577577,0.0125125125125125,0.0025794861956502,1.0,0.7093464952822784
0.7708854427213605,0.0,0.0,0.0,6.104260774025816e-05,0.3675078919371435
0.5095047523761881,0.6373873873873873,0.7352352352352352,0.5045624989099534,0.51101906273436,1.0
0.4999999999999999,0.5025025025025024,0.7562562562562563,0.5019987093848649,0.4936829621361424,0.4983065036538361
0.2816408204102051,0.5755755755755755,0.7297297297297297,0.8241065978338594,0.7271238467307324,0.0
0.3399199599799899,0.3646146146146145,0.2907907907907908,0.0,0.0,0.6091895285766608
0.8326663331665832,0.8333333333333333,0.254004004004004,0.1814029335333205,0.9709751120567872,0.7799710483631861
0.8016508254127063,0.0,0.0147647647647648,0.0033276941590945,0.2030887559516542,0.5841620594031777
0.5215107553776888,0.4872372372372371,0.7374874874874874,0.4434745452325723,0.6309520902732965,1.0
0.4707353676838419,0.4747247247247246,0.7372372372372371,0.6215061827441268,0.6259012505014214,0.0
0.5835417708854427,0.5462962962962962,0.8105605605605605,0.4645952875106824,0.4703332926382615,0.0
0.4892446223111555,0.3718718718718717,0.5780780780780781,0.9962153583201074,0.488128084831784,0.5628128433646685
0.4999999999999999,0.5027527527527527,0.7567567567567567,0.5019533634476865,0.4937283080733209,0.4984582381359331
0.4864932466233116,0.5147647647647646,0.5573073073073073,0.0,0.4688229241153182,0.4572091319741179
0.641320660330165,0.4912412412412411,0.7642642642642642,0.5119486544465179,0.4839300974937649,0.260453110556883
0.9997498749374686,0.911161161161161,0.1936936936936937,0.7192197010656295,0.604961891972025,0.9434745452325723
0.636568284142071,0.5883383383383383,0.7294794794794794,0.5098889024539128,0.4367145124439716,0.0
0.5042521260630315,0.4099099099099098,0.80005005005005,0.9963827894727664,0.5469574620227776,0.4331583445244781
0.4997498749374687,0.5025025025025024,0.7562562562562563,0.5019376667771247,0.4936201754538954,0.4983814988576312
0.5127563781890945,0.6909409409409408,0.6916916916916916,0.0,0.4959101452814064,0.4796885082930743
0.4112056028014006,0.4782282282282281,0.7797797797797796,0.3096691490660481,0.2839091685996825,1.0
0.2661330665332666,0.4049049049049048,1.0,0.7830842213579364,0.0,0.5635750039241676
0.5567783891945972,0.574074074074074,0.78003003003003,0.4607652998936115,0.4015382737150531,0.2922877025306521
0.5157578789394697,0.7394894894894893,0.7442442442442442,0.5559760712977658,0.4745452325723355,0.3672323281650592
0.6590795397698849,0.4819819819819819,0.77002002002002,0.645693008005302,0.6976245705216526,0.0
0.180840420210105,0.0,1.0,0.0,0.2188220520780648,0.2444756439995116
0.2841420710355177,0.6043543543543543,0.6861861861861861,0.0,1.0,0.978329874252228
0.0,0.3098098098098097,0.7842842842842842,0.7125346634808238,0.0,0.5767009086628181
0.5137568784392196,0.7087087087087086,0.7104604604604604,0.0,0.5662312293981199,0.4775973629593456
0.0707853926963482,0.3113113113113112,0.5332832832832832,0.5830789891344158,0.0,0.801107487311858
0.5037518759379689,0.4149149149149148,0.7842842842842842,1.0,0.4395992116783229,0.4784519594677084
0.7486243121560779,0.3018018018018017,0.9807307307307308,0.3623192702792263,1.0,0.8788304236356976
0.5522761380690344,0.5205205205205204,0.8280780780780781,0.522585764863875,0.6416188499572701,0.0
0.4924962481240619,0.6851851851851851,0.6316316316316316,0.0,0.421605594991018,0.5474597554807541
0.4767383691845922,0.4972472472472471,0.7555055055055054,0.593777142159513,0.6154612205033398,0.0
0.5175087543771886,0.7199699699699699,0.8238238238238238,0.9948881176203848,0.396258960182779,0.4846783054572091
0.706353176588294,0.9164164164164164,0.1651651651651652,1.0,0.979168774090029,1.0
0.4817408704352175,0.4742242242242241,0.7690190190190189,0.5226764567382318,0.4690357012051555,0.4521722447982977
0.264632316158079,0.3423423423423423,0.279029029029029,1.0,0.0,0.3314770566998622
0.2293646823411705,0.5558058058058057,0.0027527527527527,1.0,0.5824842597275756,0.0
0.4879939969984992,0.4817317317317316,0.7910410410410409,1.0,0.5878699618047682,0.4460383347576608
0.6683341670835417,0.5503003003003002,0.775025025025025,0.5156426042520537,0.4739348064949334,0.4753230898023963
0.5115057528764382,0.601101101101101,0.7292292292292292,0.0,0.4479463522681689,0.5691926679107732
0.4992496248124061,0.5022522522522521,0.756006006006006,0.5018923208399463,0.4936358721244571,0.4983518495910145
0.4997498749374687,0.5025025025025024,0.7565065065065064,0.5019987093848649,0.4936515687950189,0.4984128921987547
0.4994997498749374,0.5027527527527527,0.756006006006006,0.5019533634476865,0.4937126114027591,0.4983971955281929
0.534017008504252,0.5172672672672671,0.7580080080080079,0.5257756771369273,0.4763311648673631,0.0
0.4789894947473736,0.5075075075075074,0.7264764764764764,0.493866089959363,0.4520362069867625,0.8182308108202383
0.5587793896948473,1.0,0.7982982982982982,1.0,0.8107068733976315,0.0
0.501000500250125,0.5025025025025024,0.7565065065065064,0.50198475678881,0.4936672654655807,0.4983814988576312
0.5297648824412206,0.7505005005005003,0.6711711711711712,0.1431902610879536,0.6063205260128712,0.5453093116137921
0.0765382691345673,0.326076076076076,0.2482482482482482,0.295660742626925,1.0,0.6860421717215759
0.2313656828414206,0.5117617617617617,0.4514514514514514,0.0409299405270593,0.0,0.3202591694717198
0.4999999999999999,0.5025025025025024,0.7567567567567567,0.5019080175105081,0.4935748295167169,0.4983222003243978
0.4444722361180589,1.0,1.0,1.0,0.0,1.0
0.6650825412706353,0.5467967967967967,0.7429929929929929,0.4915307741946736,0.5121178296736837,1.0
0.7211105552776387,0.3358358358358357,0.6441441441441441,0.8615396689746586,0.0,0.7020824249611943
0.4962481240620309,0.4784784784784784,0.7097097097097096,0.5616373371470429,0.6921010865584177,0.0
0.5455227613806903,0.9564564564564564,0.6911911911911912,0.3843085616617542,0.4923539773619129,0.4400404625285592
0.4944972486243121,0.6636636636636636,0.5925925925925926,0.2791931911331252,0.5170465842300783,0.513017772119225
0.4992496248124061,0.5555555555555555,0.8003003003003002,0.2565306869909483,0.6462127422083471,1.0
0.0,0.5518018018018017,0.1391391391391391,0.9452151315904216,0.0,1.0
0.2108554277138569,0.3353353353353352,0.6353853853853854,0.6139351553098349,0.6716361162948881,0.461635593072536
0.5427713856928463,0.4859859859859859,0.7587587587587588,0.5062263459895007,0.4672497689101278,0.0
0.5190095047523762,0.5287787787787787,0.7545045045045045,0.500687165355704,0.5006418194185256,0.1205905436280238
0.4999999999999999,0.5030030030030029,0.7557557557557557,0.5017702356244659,0.4936829621361424,0.4984285888693165
0.526513256628314,0.592092092092092,0.7417417417417417,1.0,0.4516089087325811,0.4421019585956712
0.5017508754377188,0.4937437437437436,0.7279779779779779,0.4303050386312503,0.5311770758846818,1.0
0.4664832416208103,0.4176676676676676,0.6791791791791791,0.0,0.5572126201231317,0.4953607618117446
0.5262631315657829,0.559059059059059,0.7477477477477477,0.5074471981443047,0.4896070600136037,0.3355965606850725
0.7713856928464231,0.9204204204204204,0.862112112112112,1.0,0.2137712123061897,0.2541360726930254
0.5252626313156578,0.581081081081081,0.6671671671671671,1.0,0.4324554824982123,0.52357814325828
0.4839919959979989,0.507007007007007,0.862112112112112,0.0,0.4732633378097912,0.4840678793798071
0.8291645822911455,0.5205205205205204,0.3238238238238238,0.8919388876292795,0.9952229799257024,0.8450738615553657
0.8826913456728362,0.0,0.5205205205205204,0.9924307166402148,0.8788007743690811,0.7957967804384602
0.6708354177088544,0.4877377377377376,0.6076076076076076,0.0,1.0,0.2906848980588451
0.5512756378189094,0.4659659659659659,0.8573573573573573,0.4119312137014493,0.7338385335821547,0.0
0.5272636318159079,0.5395395395395395,0.757007007007007,0.5018609274988227,0.6506235066362035,0.1769468231682857
0.3784392196098048,0.5215215215215214,0.7472472472472472,0.4851056037113905,0.4934684409717983,0.3482934230950346
0.9997498749374686,0.8681181181181179,0.5575575575575575,0.0016777996756021,1.0,0.0
0.4837418709354676,0.4907407407407406,0.7595095095095095,0.5028079599560493,0.4877007865776026,0.4961839649789839
0.4797398699349674,0.5310310310310309,0.7630130130130129,0.4270087378132794,0.528247030713152,1.0
0.485992996498249,0.364114114114114,0.5545545545545545,0.1997157158553813,0.6574899279697228,0.6916284423670579
0.6315657828914456,0.502002002002002,0.7615115115115114,0.4849224758881699,0.5261576294539303,1.0
0.6353176588294146,0.9674674674674671,1.0,0.0,0.0,0.4604740394509653
0.4997498749374687,0.5027527527527527,0.756006006006006,0.5019219701065629,0.4937422606693758,0.4983814988576312
0.3314157078539269,0.6106106106106105,0.7647647647647646,0.4878211277185761,0.5154123864171477,0.8656155710971973
0.4999999999999999,0.5027527527527527,0.7565065065065064,0.5018766241693845,0.4936515687950189,0.4984442855398782
0.7123561780890444,0.8503503503503502,0.6286286286286286,0.7653225665800443,0.5796606031009645,1.0
0.3596798399199599,0.601101101101101,0.7662662662662663,0.4943683834173396,0.4994802657969548,0.0
0.4977488744372185,0.5032532532532532,0.7565065065065064,0.5018155815616443,0.4936062228578405,0.4984739348064949
0.5082541270635317,0.4852352352352351,0.7990490490490489,0.5734796030486422,0.4449709611594607,0.7735615745504648
0.4647323661830915,0.4952452452452451,0.6804304304304304,0.4774752777438652,0.5520239984652144,0.0
0.5140070035017508,0.4717217217217216,0.725975975975976,0.5339396899035527,0.499236095365994,0.1353157646894675
0.5717858929464732,0.4299299299299298,0.7494994994994995,0.4007447198144305,0.3366796309538343,1.0
0.0360180090045022,0.8766266266266265,0.1436436436436436,1.0,1.0,0.9713099743621048
0.5820410205102551,0.6151151151151151,0.766016016016016,0.5206480980867503,0.47343076896245,0.0
0.2153576788394197,0.4792292292292291,0.0,0.537206341454907,0.0,0.3359628163315137
0.4999999999999999,0.5027527527527527,0.7562562562562563,0.5019690601182483,0.4937126114027591,0.4983675462615763
0.0177588794397198,0.2267267267267266,0.3626126126126126,0.0,0.5966757939899192,1.0
0.4757378689344672,0.4684684684684684,0.7339839839839839,0.6345379074594066,0.4716762300085459,0.0578526954671503
0.537768884442221,0.5465465465465464,0.7442442442442442,0.5117044840155571,0.4848910825470464,0.1875228909779026
0.5007503751875937,0.869119119119119,0.195945945945946,1.0,0.5832464202870746,0.8899087849032911
0.4427213606803401,0.1821821821821821,0.4909909909909909,0.7200882501700472,0.0,0.6288155990023894
0.7488744372186092,0.7855355355355353,0.8993993993993994,0.0,1.0,0.7062629715541447
0.5345172586293147,0.4779779779779779,0.6506506506506506,0.0,0.5406700734255367,0.5112161431536355
0.6340670335167583,0.5645645645645645,0.7605105105105104,0.5123620001046445,0.4773078465912064,0.4349739260861224
0.0032516258129065,0.0,1.0,0.0079808849434048,0.1524390881978478,0.4263215724575754
0.5147573786893446,0.5998498498498498,0.7965465465465464,0.5542825749516019,0.6106545511624256,0.0
0.48224112056028,0.5595595595595595,0.7675175175175175,0.523424664701676,0.4774299318066868,0.3784938172558731
0.4999999999999999,0.5032532532532532,0.7572572572572571,0.5019376667771247,0.4936358721244571,0.4984285888693165
0.532016008004002,0.5200200200200199,0.762012012012012,0.499618047682997,0.4838237089488463,0.439063780804716
0.3994497248624312,0.4837337337337336,0.7347347347347346,0.6254268622355547,0.5754190139002738,0.0
0.2236118059029515,0.7117117117117115,0.1403903903903904,0.0,0.0,0.0061949526483772
0.5127563781890945,0.2487487487487487,0.6251251251251251,0.0952107714041544,0.5347332438041753,0.5013272406997227
0.0,0.2565065065065064,0.4481981981981981,0.2161065280708791,1.0,0.3255716204196243
0.4662331165582791,0.7777777777777777,0.7219719719719719,0.1674852189685543,0.536899384341699,0.5283080733208922
0.7106053026513256,1.0,0.7647647647647646,0.0,1.0,0.0
0.5165082541270635,0.4639639639639639,0.7429929929929929,0.2674730104470063,0.6239164937126114,1.0
0.4999999999999999,0.5022522522522521,0.7562562562562563,0.5018155815616443,0.4936829621361424,0.4983971955281929
0.3439219609804902,0.596096096096096,0.7505005005005004,0.5107121056211521,0.4920958543348971,0.7039730017266337
0.489744872436218,0.637137137137137,0.6483983983983983,0.596004325304777,0.4788339117847114,0.5080122782845283
0.5075037518759379,0.7062062062062061,0.7029529529529529,1.0,0.6100755184261472,0.4797948968379929
0.1753376688344172,0.9116616616616616,1.0,0.9852730348640492,0.5400439506775729,0.1245112231194516
0.5070035017508754,0.679179179179179,0.5898398398398398,0.5978826935486684,0.4879746062751801,0.4759649092209219
0.5237618809404702,0.6956956956956956,0.3063063063063063,1.0,0.950082843539076,0.5415543192005162
0.9997498749374686,1.0,0.1426426426426426,0.9999389573922596,0.8098836702303922,1.0
0.4999999999999999,0.5027527527527527,0.7565065065065064,0.5018923208399463,0.4937126114027591,0.4984442855398782
0.5417708854427213,0.554054054054054,0.756006006006006,0.4977710727802292,0.4875787013621221,0.3559847916703001
0.5322661330665333,0.7890390390390389,1.0,0.6799693042886792,0.9445279662347176,0.0
0.4967483741870935,0.4179179179179178,0.7467467467467467,0.0,0.4825261175157402,0.4840678793798071
0.4782391195597798,0.7955455455455454,0.6809309309309308,0.0,0.5300015696670561,0.4850759544447738
0.549024512256128,0.664164164164164,0.2982982982982983,0.476880548337025,0.0,0.0
0.4624812406203101,0.6423923923923922,0.6821821821821821,1.0,0.5499014597903622,0.5859322950276435
0.4444722361180589,0.5645645645645645,0.7545045045045045,0.434532675235886,0.4635418665085372,0.2898146048799205
0.4874937468734366,0.3596096096096095,0.7582582582582582,0.2371051851335089,0.4115039154472679,0.5179168774090029
0.5005002501250625,0.5027527527527527,0.7555055055055054,0.5018923208399463,0.4936062228578405,0.4983971955281929
0.4079539769884942,0.4807307307307306,0.7567567567567567,0.4471824476341629,0.3603345134904163,0.4809547063850568
0.4927463731865932,0.4777277277277276,0.6701701701701701,0.4501281894762544,0.6278685665451629,0.0
0.534017008504252,0.4549549549549548,0.822072072072072,0.704020091738319,0.4523710692920801,0.51401015051363
0.2051025512756378,0.0045045045045044,0.271021021021021,0.0582346477841533,0.4787257791652859,0.7443989047212096
0.4477238619309654,0.3398398398398398,0.745995995995996,0.0,0.6977466557371331,0.525728587125242
0.5002501250625312,0.5027527527527527,0.7562562562562563,0.5018609274988227,0.4936969147321973,0.4983971955281929
0.0595297648824412,0.0210210210210209,0.0052552552552553,0.0,0.9997244362279156,0.0424246123794408
0.8484242121060529,0.9286786786786784,0.6363863863863863,0.9331129985872996,0.0,1.0
0.4249624812406202,0.5508008008008007,0.7027027027027026,0.3657516089087326,0.6663724994331758,1.0
0.5607803901950975,0.4879879879879879,0.8183183183183182,0.3503688717582015,0.3100040113713658,1.0
0.5412706353176587,0.6546546546546546,0.1644144144144144,1.0,0.6629994593369029,0.1683241188063554
0.5212606303151576,0.4459459459459459,0.7790290290290289,1.0,0.4478539163193051,0.4651132776392207
0.8291645822911455,0.7887887887887887,0.1774274274274274,1.0,0.0002755637720843,1.0
0.5120060030015007,0.3586086086086085,0.4539539539539539,0.0,0.0,0.5255158100354047
0.5237618809404702,0.4507007007007006,0.5312812812812813,0.0,0.99342309503462,0.4507996581613966
0.648824412206103,0.6043543543543543,0.7535035035035034,0.505432792088878,0.4894553255315067,0.3853619826638994
0.9969984992496248,0.4001501501501501,0.5257757757757757,0.6317909901110975,6.104260774025816e-05,0.0
0.5200100050025012,0.634134134134134,0.5635635635635635,0.0,0.0,0.9036451157193436
0.4999999999999999,0.5025025025025024,0.756006006006006,0.5018469749027679,0.4936672654655807,0.4983675462615763
0.4919959979989994,0.5500500500500499,0.7404904904904904,0.503219561539669,0.4901721401538274,0.4883408619216213
0.5092546273136568,0.5427927927927927,0.7439939939939939,0.4723023527565098,0.4755672602333571,0.4507386155536564
0.4884942471235617,0.4542042042042041,0.7429929929929929,0.5263861032143293,0.4726982576695676,0.3854840678793798
0.4919959979989994,0.4396896896896896,0.77002002002002,0.0,0.3497130997436211,0.536747649859602
1.0,0.2937937937937938,0.9767267267267266,0.5251042084517851,1.0,0.7517083209794722
0.4997498749374687,0.5030030030030029,0.7565065065065064,0.5018923208399463,0.4937283080733209,0.4983814988576312
0.5097548774387193,0.6734234234234233,0.6391391391391391,0.999909308125643,0.5501473742958299,0.4143118754033172
0.6538269134567283,0.6038538538538537,0.7505005005005004,0.6086558417775607,0.4014615344367511,0.0
0.6395697848924462,0.4947447447447446,0.766016016016016,0.5059664788879781,0.4921708495386923,0.381333170553046
1.0,1.0,0.8185685685685685,0.0,0.3875438198719849,0.9959868845597084
0.4732366183091545,0.4929929929929929,0.7289789789789789,0.0,0.5271325671032666,0.4484346931300905
0.4999999999999999,0.5025025025025024,0.7562562562562563,0.5018609274988227,0.4936969147321973,0.4983675462615763
0.5130065032516258,0.5015015015015014,0.7740240240240239,1.0,0.4762247763224445,0.4723790920348117
0.5322661330665333,0.5250250250250249,0.7590090090090089,0.463634302457401,0.4872263983117358,0.0777996756021417
0.4649824912456227,0.5130130130130129,0.3693693693693693,1.0,1.0,0.0
0.0165082541270635,0.3763763763763763,0.1671671671671671,0.0,0.6656853340774718,1.0
0.5187593796898449,0.5275275275275274,0.7489989989989989,0.47840661353053,0.4578195580515199,0.4696164780159408
0.3124062031015507,0.6236236236236236,0.746996996996997,0.4901564434832656,0.5181610478399638,0.9667160821110278
0.2156078039019509,0.4476976976976976,0.315065065065065,1.0,1.0,0.4739958491026736
0.5107553776888444,0.6066066066066065,0.7912912912912913,1.0,0.430411427176169,0.5341228177267733
0.9997498749374686,0.03003003003003,0.0007507507507508,0.2940422414845562,0.8912674189441373,0.0086070076913685
0.8019009504752375,0.4834834834834834,0.8405905905905906,1.0,0.0805151996093272,0.1116155362157071
0.3711855927963982,0.5457957957957957,0.7557557557557557,0.502532396183965,0.5012365488253658,0.78915883286534
0.5392696348174086,0.5595595595595595,0.1043543543543543,0.9623070617576782,0.0,0.0
0.0,0.4061561561561561,1.0,0.4358738685316636,1.0,0.6638837051118823
0.4464732366183091,0.4151651651651651,0.6874374374374375,0.6799693042886792,0.4426652946613879,0.0
0.4999999999999999,0.5030030030030029,0.7562562562562563,0.5019080175105081,0.4936829621361424,0.4984285888693165
0.989744872436218,0.4471971971971971,0.7217217217217217,1.0,0.3252803599769782,0.4619861520484155
0.4869934967483741,0.6128628628628627,0.7635135135135135,0.5432181662800635,0.4808483178401381,1.0
0.4997498749374687,0.5025025025025024,0.7565065065065064,0.5018766241693845,0.4937422606693758,0.4984285888693165
0.2458729364682341,0.341091091091091,0.4374374374374374,0.4424071716343722,0.0,0.0814465353959921
0.6540770385192596,0.4306806806806806,0.7635135135135135,0.5095522960740883,0.4922789821581178,0.6027190121561993
0.4997498749374687,0.5022522522522521,0.7562562562562563,0.5018609274988227,0.4937893506810611,0.4984442855398782
0.9997498749374686,0.9156656656656654,0.811061061061061,1.0,0.0,0.0538238833562969
0.5005002501250625,0.5027527527527527,0.757007007007007,0.5017545389539041,0.4938346966182395,0.4983971955281929
0.6415707853926963,0.6173673673673673,0.7712712712712713,0.5052200149990408,0.4735389015818755,0.0944329141740935
0.5140070035017508,0.7209709709709708,0.6931931931931932,1.0,0.3758096865898111,0.4489230339920121
0.5002501250625312,0.5030030030030029,0.7557557557557557,0.5018312782322061,0.4936515687950189,0.4984582381359331
0.5060030015007503,0.5360360360360359,0.7555055055055054,0.5095069501369098,0.4930568393881787,0.5503898006522838
0.5782891445722861,0.4692192192192191,0.7530030030030029,0.4962764009278476,0.5068978146746429,0.8151019411549261
0.4682341170585292,0.6944444444444443,0.6181181181181181,0.0,0.3296754277342728,0.5352826272738371
0.6255627813906952,0.4471971971971971,0.7995495495495495,0.5808204126480283,0.5815529239409107,0.0
0.4997498749374687,0.4411911911911911,0.7237237237237237,0.5848788740254984,0.701119695833406,0.0
0.4624812406203101,0.4124124124124123,0.6248748748748748,0.2311369621710239,0.4526309363936027,0.4430019010412125
0.5005002501250625,0.5022522522522521,0.7565065065065064,0.5019080175105081,0.4936358721244571,0.4983814988576312
0.3711855927963982,0.9777277277277276,0.591091091091091,1.0,0.7418054659295045,0.0
0.5732866433216608,0.553053053053053,0.746996996996997,0.547079547238258,0.4609780769834487,0.0696496154315712
0.5105052526263131,0.3993993993993993,0.5753253253253253,0.6143485009679613,0.0,1.0
0.4992496248124061,0.6766766766766765,0.6551551551551551,0.995559586305527,0.3838062682037776,0.4872577916528594
0.4989994997498749,0.5027527527527527,0.756006006006006,0.5019219701065629,0.4935905261872787,0.4983971955281929
0.5125062531265632,0.5045045045045045,0.7547547547547546,0.504288679212376,0.4966880025114673,0.5013272406997227
0.4999999999999999,0.5027527527527527,0.756006006006006,0.5018155815616443,0.4936672654655807,0.4984442855398782
0.5835417708854427,0.5948448448448448,0.6684184184184184,1.0,0.998168721767794,0.6440291609257547
0.5167583791895948,0.5610610610610609,0.7092092092092092,1.0,0.508347140589846,0.5114306643179797
0.4767383691845922,0.61011011011011,0.7144644644644644,0.0,0.5300329630081797,0.4928580148943963
0.6058029014507254,0.4446946946946946,0.762012012012012,0.4920330676526501,0.4973751678671713,0.5602943997767584
0.4579789894947473,0.2329829829829829,0.6488988988988988,0.9780403578840888,0.4016603589305335,0.4831975862008825
0.5422711355677838,0.5455455455455455,0.766016016016016,0.531543331531123,0.5046845841254338,1.0
0.3749374687343672,0.5600600600600599,0.7707707707707707,0.4944747719622582,0.5167256745208155,0.75302160908314
0.7466233116558278,0.9109109109109108,0.3170670670670671,1.0,0.4841132253169855,0.9988558871234978
0.433216608304152,0.4249249249249248,0.7294794794794794,0.2870380382649947,0.2711059176448017,1.0
0.6493246623311655,0.1201201201201201,0.1146146146146146,1.0,0.9540802623088058,0.7041875228909779
0.4994997498749374,0.5025025025025024,0.7565065065065064,0.5019376667771247,0.4937422606693758,0.4983814988576312
0.4994997498749374,0.5027527527527527,0.757007007007007,0.5019376667771247,0.4936201754538954,0.4983222003243978
0.6935967983991995,0.9727227227227224,0.0,0.4585974152815808,1.0,1.0
0.4942471235617808,0.4764764764764764,0.7757757757757757,0.4175610862096028,0.3844306468772346,1.0
0.9997498749374686,0.6458958958958958,0.5535535535535535,0.5406840260215916,0.2596456040602054,0.9817482602856794
0.5540270135067533,0.4429429429429428,0.7129629629629629,0.5079965816139665,0.6223607792524897,0.0
0.4929964982491245,0.2392392392392391,0.6651651651651651,0.1508676770671643,0.6055583654533722,0.4428641191551703
0.4662331165582791,0.4529529529529528,0.7494994994994995,0.6682944695397387,0.5024260076390463,0.0
0.5395197598799399,0.5317817817817817,0.0,0.0,0.0,0.0034340827040131
0.4512256128064031,0.4917417417417417,0.7547547547547546,0.6221916040253239,0.5146659225282104,0.0185726494235833
0.5405202601300649,0.4034034034034033,0.783033033033033,1.0,0.4559429338821354,0.477796187453128
0.2651325662831415,0.3866366366366365,0.7049549549549549,1.0,0.4528140642168233,0.7567452081552923
0.3414207103551775,0.5457957957957957,0.6243743743743744,0.5764096482201719,0.0,1.0
0.4994997498749374,0.5025025025025024,0.7557557557557557,0.5019080175105081,0.4936672654655807,0.4984285888693165
0.4777388694347173,0.3178178178178177,0.6486486486486486,0.6397108324467621,0.5035561679194935,0.4896837992919057
0.4372186093046523,0.518018018018018,0.8148148148148147,0.2831923539773619,0.5095993860857736,0.7379597816418717
0.5002501250625312,0.5022522522522521,0.7565065065065064,0.5018766241693845,0.4937283080733209,0.4983361529204527
0.8441720860430213,0.0665665665665665,0.0,0.9204457854439542,1.0,0.3056106876885781
0.5012506253126563,0.4034034034034033,0.8225725725725725,0.0,0.493803303277116,0.5087133962362872
0.4702351175587793,0.4239239239239238,0.8088088088088088,0.2581945340704955,0.3080820412648028,1.0
0.4909954977488744,0.5117617617617617,0.7697697697697696,0.628616774508607,0.6047944608193662,0.0
0.7708854427213605,0.2224724724724723,0.4041541541541541,1.0,0.4699984303329438,0.3260896105481626
0.4999999999999999,0.5027527527527527,0.7565065065065064,0.5018766241693845,0.4936201754538954,0.4983814988576312
0.6663331665832916,1.0,0.3821321321321321,0.3186581090744196,1.0,0.0
0.5637818909454727,0.7590090090090089,0.7372372372372371,0.6767183494078867,0.6428710954531978,0.0
0.6075537768884441,0.4727227227227226,0.7607607607607607,0.4901110975460871,0.5151228700490085,0.90115632139805
0.5162581290645322,0.7359859859859859,0.5653153153153153,0.0134450703734063,0.4134729755655161,0.5266459703158519
0.5312656328164082,0.6796796796796796,0.5835835835835835,0.0,0.7328322025916947,0.4918359872333746
0.2548774387193596,0.9354354354354352,0.767017017017017,0.0014807192563266,1.0,0.0
0.5210105052526263,0.6146146146146145,0.7357357357357357,0.544789577410747,0.6070687339763154,0.0
0.0255127563781891,0.5182682682682682,0.9336836836836836,0.2862601810349338,1.0,0.0
0.4714857428714357,0.5200200200200199,0.7374874874874874,0.3422362523326996,0.3913127648813157,1.0
0.6833416708354176,0.4364364364364363,0.4369369369369369,1.0,0.0087901355145892,0.3118213370075169
0.4997498749374687,0.5025025025025024,0.7562562562562563,0.5019080175105081,0.4935905261872787,0.4983361529204527
0.5185092546273136,0.5150150150150149,0.7540040040040039,0.6154769171739016,0.591640650888606,0.0
0.4742371185592796,0.6501501501501501,0.7792792792792792,1.0,0.5488497828627239,0.49449046863282
0.6753376688344171,0.2012012012012011,0.200950950950951,1.0,1.0,0.4791391248234125
0.6908454227113556,0.802052052052052,0.6498998998998998,1.0,0.0,0.0
0.4994997498749374,0.5025025025025024,0.7565065065065064,0.5019219701065629,0.4936515687950189,0.4983971955281929
0.4784892446223111,0.5713213213213212,0.8223223223223222,0.4373859811291138,0.5278511258000942,1.0
0.4942471235617808,0.5728228228228227,0.8018018018018018,1.0,0.3180005929853323,0.4907825662312294
0.530265132566283,0.6749249249249248,0.5895895895895895,0.6282662155327275,0.5106214137467953,0.4871200097668172
0.2481240620310155,0.6363863863863863,0.997997997997998,1.0,1.0,0.0135828522594485
0.5852926463231616,0.5683183183183182,0.7502502502502502,0.4886146816191988,0.4894082355198214,0.3297068210753963
0.0,0.0,0.0,0.0,0.0174424891431361,1.0
0.4637318659329664,0.6899399399399399,0.7597597597597596,1.0,0.54517152972775,0.5063937771421595
0.4732366183091545,0.336086086086086,0.7862862862862863,0.3770444913406701,0.4694333501927202,0.4776270122259622
0.5310155077538768,0.4929929929929929,0.8295795795795795,1.0,0.4016446622599717,0.4520362069867625
0.508504252126063,0.6839339339339339,0.586086086086086,0.0433559481661056,0.463557563179099,0.4930568393881787
0.3871935967983991,0.4547047047047046,0.5845845845845845,0.0,0.2834661736749394,1.0
0.6165582791395697,0.5868368368368367,0.7447447447447447,0.5627064548197499,0.4476864851666463,0.2028445855206934
0.1978489244622311,1.0,0.984234234234234,1.0,0.0,1.0
0.0,0.5277777777777777,0.1701701701701702,0.5830946858049776,1.0,1.0
0.4994997498749374,0.5025025025025024,0.7562562562562563,0.5018609274988227,0.4936515687950189,0.4983814988576312
0.6858429214607302,0.4767267267267266,0.5435435435435435,0.3557109719727227,1.0,0.0
0.424712356178089,0.8736236236236234,0.6448948948948948,0.0090046566789333,0.0251652510595253,0.0
0.4279639819909954,0.6401401401401401,0.4061561561561561,0.0,1.0,0.7656277796187453
0.5555277638819409,0.5397897897897896,0.7222222222222222,0.5571358808448297,0.3515286813052654,0.5013586340408462
0.4904952476238118,0.5055055055055054,0.7785285285285285,0.4522332874060379,0.4452133875159146,0.0039991628442367
0.5002501250625312,0.5027527527527527,0.7565065065065064,0.5019533634476865,0.4936672654655807,0.4984582381359331
0.4997498749374687,0.5025025025025024,0.756006006006006,0.5018469749027679,0.4936969147321973,0.4983518495910145
0.2376188094047023,0.1266266266266265,0.0047547547547547,1.0,1.0,0.0028690025637895
0.4489744872436217,0.6604104104104103,0.5655655655655656,0.184348675375412,0.490737220294051,0.5660934475120777
0.7828914457228613,0.564064064064064,0.5818318318318318,1.0,0.0,1.0
0.5042521260630315,0.6203703703703702,0.6146146146146145,1.0,0.5709018609274988,0.5275459127613932
0.4387193596798399,0.4922422422422421,0.730980980980981,0.394961368749673,0.4593909691822034,1.0
0.5790395197598799,0.4719719719719719,0.7717717717717717,0.5052496642656574,0.5044107644278564,0.9432600240682282
0.4722361180590295,0.4642142142142141,0.7489989989989989,0.5194568951985629,0.366712593962014,0.9928580148943962
0.4999999999999999,0.5027527527527527,0.7562562562562563,0.5018766241693845,0.4936672654655807,0.4983361529204527
0.4147073536768383,0.8633633633633633,0.1166166166166166,0.0,0.0854910441774072,0.0
0.9007003501750874,0.878128128128128,0.6779279279279279,0.0,0.0148176570103074,1.0
0.4999999999999999,0.5027527527527527,0.7565065065065064,0.5018155815616443,0.4936829621361424,0.4983971955281929
0.5852926463231616,0.3858858858858858,0.7790290290290289,0.4799466313200899,0.5032649074768474,0.5429896925196644
0.4399699849924962,0.4842342342342342,0.4752252252252252,0.439445733121719,0.0,0.9953311125451278
0.6925962981490744,0.4456956956956956,0.5035035035035035,0.975811430664318,0.0,1.0
0.8619309654827413,0.875125125125125,0.5057557557557557,0.0273784816087342,0.0715419362715175,1.0
0.546273136568284,0.4416916916916916,0.2832832832832833,1.0,0.6601147601025515,0.3528419694089331
0.7331165582791395,0.3838838838838838,0.3831331331331331,1.0,0.5151699600606938,0.6992273749934597
0.4169584792396197,0.6393893893893893,0.7572572572572571,0.514772311073129,0.4628250518862166,0.0
0.8279139569784891,0.6301301301301301,0.6491491491491491,0.314964159268884,0.5692990564556918,0.5977449116626262
0.557528764382191,0.4887387387387386,0.7447447447447447,0.3988070530373057,0.5758306154838935,1.0
0.4997498749374687,0.5025025025025024,0.756006006006006,0.5018766241693845,0.4936969147321973,0.4984128921987547
0.5630315157578789,0.5915915915915915,0.7910410410410409,0.5674520815529239,0.4673718541256082,1.0
0.4999999999999999,0.5027527527527527,0.7565065065065064,0.5018469749027679,0.4936515687950189,0.4983814988576312
0.5455227613806903,0.2617617617617617,0.0,1.0,0.0,0.2327554633133927
0.4997498749374687,0.5025025025025024,0.7565065065065064,0.5019376667771247,0.4936672654655807,0.4984582381359331
0.0,0.3543543543543543,0.3473473473473473,0.2719291208120411,0.8344210544674469,0.0
0.4994997498749374,0.5025025025025024,0.7562562562562563,0.5018155815616443,0.4937283080733209,0.4983971955281929
0.4119559779889944,0.4144144144144143,0.7840340340340339,0.4861119347018505,0.4954514536861015,0.0
0.9997498749374686,0.8681181181181179,0.4917417417417417,1.0,1.0,1.0
0.4997498749374687,0.5025025025025024,0.7567567567567567,0.5019219701065629,0.4936672654655807,0.4984128921987547
0.465232616308154,0.3195695695695695,0.7690190190190189,0.2892495247396969,0.5144217520972496,0.5082093587038038
0.0,0.6534034034034033,0.0305305305305305,1.0,0.8570225160018836,0.6073739470150165
0.4364682341170585,0.5490490490490489,0.7502502502502502,0.4574079564679003,0.4874252228055182,0.4891501124928057
0.3556778389194597,0.6939439439439439,0.0177677677677678,0.446176116643703,0.0,0.0
0.4679839919959979,0.4804804804804804,0.7692692692692692,0.4888448994541047,0.4614210719081919,0.0
0.5162581290645322,0.7254754754754753,0.6569069069069069,0.237485393376005,0.4237577829324869,0.4798855887123497
0.4994997498749374,0.5025025025025024,0.7565065065065064,0.5019080175105081,0.4936201754538954,0.4983065036538361
0.534017008504252,0.5372872872872871,0.7565065065065064,0.5015260651935051,0.4982594136421508,0.8595252629192318
0.9997498749374686,0.7089589589589589,0.3678678678678678,0.0267366621902087,1.0,0.0
0.0,0.3628628628628628,0.6741741741741741,0.358595671207074,0.6335001831278232,0.0935469243246071
0.4999999999999999,0.5025025025025024,0.7565065065065064,0.5018312782322061,0.4937126114027591,0.4983814988576312
0.5447723861930965,0.5262762762762762,0.7705205205205206,0.489654150025289,0.4651132776392207,0.0
0.5022511255627813,0.6476476476476476,0.6721721721721721,1.0,0.4459005528716186,0.4532867084081832
0.3876938469234617,0.6058558558558558,0.7530030030030029,0.4931318345919738,0.4846329595200307,0.1120428344698885
0.5037518759379689,0.7722722722722721,0.6809309309309308,0.2531279976280587,0.4534855329019656,0.4909499973838882
0.5237618809404702,0.2990490490490489,0.1851851851851852,1.0,0.7238118492421997,1.0
0.0327663831915958,0.5760760760760759,0.6729229229229229,0.0,1.0,0.1992273749934597
0.4154577288644321,0.4992492492492492,0.7562562562562563,0.495406107748923,0.5017702356244659,0.532764183685927
0.9997498749374686,0.618118118118118,1.0,0.528400509269756,0.0,1.0
0.0537768884442221,0.3946446446446445,0.6413913913913913,0.8538639970699549,0.0,0.9690060519385388
0.5092546273136568,0.4426926926926926,0.6876876876876876,0.0013429373702844,0.4948113783420828,0.5327798803564888
0.789144572286143,0.4446946946946946,0.6956956956956957,0.5251495543889635,0.6174913232293283,0.0
0.5062531265632816,0.4534534534534534,0.7635135135135135,0.4911174285365471,0.5014336292446413,0.4226293667265465
0.4472236118059029,0.4639639639639639,0.7992992992992993,0.4926748870711757,0.5442262413450303,0.4894553255315067
0.0,0.5945945945945945,0.4599599599599599,0.969510089471022,1.0,0.0265988803041665
0.4807403701850924,0.7322322322322321,0.6859359359359358,0.0,0.4785740446831888,0.4889216387324066
0.4999999999999999,0.5027527527527527,0.7565065065065064,0.5019080175105081,0.4936515687950189,0.4983971955281929
0.4717358679339669,0.4707207207207206,0.5457957957957957,0.2107347785897413,0.0,0.5434466400404625
0.4997498749374687,0.5025025025025024,0.7565065065065064,0.5018155815616443,0.4936672654655807,0.4984128921987547
0.4992496248124061,0.7279779779779778,0.5855855855855856,0.5666881769189179,0.4478242670526885,0.4289010586532257
0.4999999999999999,0.5027527527527527,0.7562562562562563,0.5018469749027679,0.4936515687950189,0.4984128921987547
0.4992496248124061,0.5425425425425424,0.7535035035035034,0.4509670893140555,0.5717861067024783,1.0
0.4999999999999999,0.5025025025025024,0.757007007007007,0.5020144060554267,0.4936358721244571,0.4984285888693165
0.0647823911955978,0.6346346346346345,0.3115615615615615,0.0,0.0610426077402027,0.2224846085424769
0.7881440720360179,0.9829829829829828,0.5995995995995995,0.9266267854962764,0.7659783385946247,0.7597066466679456
0.4692346173086543,0.5150150150150149,0.7547547547547546,0.5083924865270244,0.5048834086192162,0.991347646371453
0.8044022011005503,0.552052052052052,0.6126126126126126,0.0,1.0,0.0
0.5007503751875937,0.5022522522522521,0.7557557557557557,0.50198475678881,0.4936201754538954,0.4983518495910145
0.929464732366183,0.4989989989989989,0.4994994994994994,0.4619094127701135,0.8576329420792856,0.5236234891954584
0.4917458729364681,0.4829829829829829,0.7562562562562563,0.3556952753021609,0.2855119730714896,1.0
0.3229114557278639,0.537037037037037,0.0,0.0,1.0,0.6198719849311962
0.5647823911955977,0.5700700700700699,0.6926926926926926,1.0,0.3746184837016237,0.5091563911610304
0.4997498749374687,0.5025025025025024,0.7562562562562563,0.5018469749027679,0.4936969147321973,0.4983971955281929
0.4999999999999999,0.5030030030030029,0.7567567567567567,0.5018609274988227,0.4936515687950189,0.4984582381359331
0.5187593796898449,0.507007007007007,0.7512512512512513,0.3928248774787659,0.5103162007080942,0.7310619669672288
0.4987493746873436,0.5030030030030029,0.7565065065065064,0.5018609274988227,0.4937126114027591,0.4983675462615763
0.4992496248124061,0.5025025025025024,0.7565065065065064,0.5018312782322061,0.4936515687950189,0.4984442855398782
0.6873436718359178,0.6128628628628627,0.4962462462462462,1.0,0.0,0.0
0.4187093546773386,0.8050550550550549,0.5903403403403403,0.0,0.9998779147845196,0.0
0.4852426213106552,0.4349349349349348,0.7254754754754754,0.0,0.5186022986902,0.5425466975949212
0.0022511255627813,0.3733733733733733,0.7409909909909909,0.2934475120777159,1.0,0.5160385091651115
0.4997498749374687,0.5030030030030029,0.7562562562562563,0.5018766241693845,0.4937736540104993,0.4984739348064949
0.4997498749374687,0.5025025025025024,0.7562562562562563,0.5018766241693845,0.4936829621361424,0.4984285888693165
0.54152076038019,0.3528528528528528,0.495995995995996,1.0,0.7232938591136613,0.9172105272337234
0.5962981490745372,0.5538038038038037,0.7434934934934935,0.4792158641017144,0.5246455168564801,1.0
0.4997498749374687,0.5025025025025024,0.7562562562562563,0.5018923208399463,0.4936515687950189,0.4984128921987547
0.2481240620310155,0.5853353353353352,0.8931431431431431,1.0,1.0,0.6509269756003977
0.5642821410705352,0.5660660660660659,0.787037037037037,0.5754643598374523,0.4798559394457331,0.984296353140206
0.5082541270635317,0.4692192192192191,0.6373873873873874,0.0,0.5359087500218009,0.5383347576608473
0.4354677338669334,0.5412912912912912,0.7635135135135135,0.5163140729371959,0.5053264035439594,1.0
0.3444222111055527,1.0,0.0998498498498498,1.0,0.5436611612048067,0.0
0.5507753876938468,0.5157657657657657,0.7512512512512513,0.5226014615344368,0.5488497828627239,0.0
0.4997498749374687,0.5022522522522521,0.7555055055055054,0.5017545389539041,0.4935137869089767,0.4983675462615763
0.5212606303151576,0.5808308308308308,0.7692692692692692,1.0,0.5216858224183337,0.4990233182761567
0.1918459229614807,0.3333333333333332,0.6413913913913913,0.0065158623576399,1.0,0.9190418054659296
0.5757878939469734,0.7680180180180178,0.7139639639639639,1.0,0.0,1.0
0.4744872436218108,0.5305305305305305,0.7587587587587588,0.3874827772642447,0.5425310009243595,1.0
0.8056528264132066,0.827077077077077,0.1851851851851852,1.0,0.0,0.9991000575544586
0.461480740370185,0.4201701701701701,0.5948448448448448,0.0,0.4798245461046095,0.5453389608804088
0.5165082541270635,0.4471971971971971,0.7417417417417417,1.0,0.4766974205138043,0.468913615989675
0.4997498749374687,0.5025025025025024,0.7565065065065064,0.5019376667771247,0.4936969147321973,0.4984739348064949
0.4962481240620309,0.5515515515515514,0.8183183183183182,0.5350994994506165,0.3403421874182465,0.1072204684584125
0.4159579789894947,0.548048048048048,0.5045045045045045,1.0,0.0316654167466034,0.3786159024713535
0.4952476238119059,0.6609109109109108,0.6719219219219219,1.0,0.625015260651935,0.4542633901320264
0.4982491245622811,0.5142642642642642,0.7885385385385384,0.3440657864903989,0.471294277691543,0.9114568254355826
0.5125062531265632,0.3498498498498498,0.6181181181181181,0.0101941154926138,0.5389137903971257,0.4466173674939393
1.0,1.0,0.3501001001001,0.0,0.3914958927045363,1.0
0.5502751375687843,0.5485485485485484,0.7735235235235235,0.5123306067635209,0.472591869124649,0.3319793501578387
0.4272136068034016,0.5505505505505505,0.7489989989989989,0.5107888448994541,0.4747894030032963,0.2722657271918656
0.6205602801400699,0.7717717717717716,0.3408408408408409,1.0,0.8364982472051206,0.3050456075483544
0.5727863931965982,0.4889889889889889,0.752002002002002,0.5075535866892233,0.4668992099342484,0.0
0.4277138569284642,0.5698198198198198,0.7532532532532532,0.5170919301672567,0.5074925440814831,1.0
0.9997498749374686,0.3465965965965965,1.0,0.230130631180564,0.0,1.0
0.4997498749374687,0.5027527527527527,0.7567567567567567,0.5019080175105081,0.4936969147321973,0.4983971955281929
0.7321160580290145,0.3833833833833833,0.3913913913913914,0.7161675706786194,0.9584456807994836,0.6104260774020266
0.5830415207603801,0.5295295295295295,0.7655155155155156,0.5049148019603398,0.5015103685229433,0.8869037445279662
0.5017508754377188,0.3766266266266265,0.7409909909909909,0.730207370458866,0.4979698972740115,0.4559568864781903
0.4997498749374687,0.5022522522522521,0.7567567567567567,0.5019080175105081,0.4936062228578405,0.4984442855398782
0.5777888944472236,0.6148648648648648,0.7635135135135135,0.5508798855887124,0.6075413781676753,0.0
0.5290145072536268,0.5467967967967967,0.7630130130130129,0.5633011842265901,0.2620716116992518,0.4079320508572126
0.4962481240620309,0.6724224224224222,0.4787287287287287,1.0,0.8163995325880321,0.6128224357744563
0.5150075037518759,0.7972972972972971,0.8013013013013013,0.0003662556464412,0.5291173238920767,0.4025463487800199
0.0607803901950975,0.6771771771771771,0.3538538538538539,0.1047491148821878,0.2336867991000575,0.2287266512025393
0.3346673336668334,0.3513513513513513,0.4764764764764764,1.0,0.0,0.2881978478120585
0.537768884442221,0.4782282282282281,0.752002002002002,0.6363534890210509,0.5802867258489283,0.0
0.4997498749374687,0.5027527527527527,0.7562562562562563,0.5019080175105081,0.4936969147321973,0.4983361529204527
0.5512756378189094,0.4767267267267266,0.7587587587587588,0.5012661980919825,0.4945218619739435,0.4744074506862933
1.0,0.3918918918918918,0.4912412412412412,0.2452395486335176,0.9943544308212846,0.026033800163943
0.5752876438219109,0.523023023023023,0.7535035035035034,0.4946125538483004,0.523347925423374,1.0
0.4999999999999999,0.5027527527527527,0.7562562562562563,0.5018609274988227,0.4936969147321973,0.4984128921987547
0.4642321160580289,0.4644644644644644,0.7389889889889889,0.3837295289254757,0.324900151734482,1.0
0.6935967983991995,0.527027027027027,0.741991991991992,0.4662748312607914,0.4984285888693165,0.008957566667248
0.3754377188594296,0.5400400400400399,0.7530030030030029,0.4962467516612309,0.5098435565167344,0.2199679090290737
0.7003501750875437,0.5227727727727727,0.767017017017017,0.495482847027225,0.5248443413502625,0.999923260721698
0.424712356178089,0.5553053053053052,0.7159659659659658,0.5070809424978635,0.4961996616495456,0.6408409927272093
0.4994997498749374,0.7660160160160159,0.7014514514514514,0.9006836772066903,0.3709559272372116,0.5156722535186703
0.5460230115057528,0.5150150150150149,0.3898898898898899,0.3096238031288696,1.0,0.0788670492003418
0.4517258629314656,0.4449449449449448,0.7477477477477477,0.3382684828295865,0.254943579189703,1.0
0.5465232616308153,0.4724724724724723,0.772022022022022,0.4976803809058723,0.472591869124649,0.0
0.5130065032516258,0.7332332332332332,0.6401401401401401,0.0,0.4571934353035561,0.4470150164815041
0.5375187593796897,0.7132132132132131,0.4582082082082082,1.0,0.100521478277552,0.2941189807628582
0.7186093046523261,0.0508008008008007,0.2429929929929929,0.0,0.0,0.2457278894954392
0.4149574787393696,0.5277777777777777,0.7757757757757757,0.3479882100563336,0.439979419920819,0.8182465074908001
0.4717358679339669,0.4849849849849849,0.6969469469469469,0.487135706437379,0.3615396689746586,1.0
0.3669334667333666,0.5427927927927927,0.5435435435435435,0.2635976768927568,0.0,0.057639918377313
0.4994997498749374,0.5030030030030029,0.7562562562562563,0.5018923208399463,0.4937126114027591,0.4983361529204527
0.4989994997498749,0.5030030030030029,0.7567567567567567,0.5020457993965503,0.4934527443012365,0.4984442855398782
0.0,0.602102102102102,0.205955955955956,0.4198667527076757,0.3276924150199696,0.6003993930620716
0.5117558779389695,0.4324324324324323,0.7429929929929929,0.6754364546453424,0.5186633412979402,0.0
0.3376688344172086,0.533033033033033,0.7462462462462462,0.505204318328479,0.4994959624675166,0.8757625965781257
0.4997498749374687,0.5025025025025024,0.756006006006006,0.5017859322950277,0.4936672654655807,0.4984128921987547
0.4997498749374687,0.5027527527527527,0.756006006006006,0.5018766241693845,0.4936358721244571,0.4983971955281929
0.4992496248124061,0.5025025025025024,0.7565065065065064,0.5018469749027679,0.4936829621361424,0.4984582381359331
0.51975987993997,0.7062062062062061,0.7104604604604604,0.5899314578718803,0.4049723564190662,0.4859758968903152
0.5125062531265632,0.5157657657657657,0.756006006006006,0.5005493834696618,0.4886460749603223,0.4835638418473237
0.935217608804402,0.3776276276276276,0.1524024024024024,0.9788949543924516,0.9450616530338176,0.9442367057920714
0.5682841420710355,0.4897397397397396,0.7497497497497497,0.5114446169140345,0.4914226415752481,0.5699844777368889
0.4817408704352175,0.389139139139139,0.755005005005005,0.5272860456598706,0.5182063937771422,0.4936201754538954
0.4997498749374687,0.5030030030030029,0.756006006006006,0.5018923208399463,0.4935905261872787,0.4983361529204527
0.5267633816908454,0.4827327327327326,0.7565065065065064,0.0,0.4070635017527949,0.5494602089401259
0.4977488744372185,0.4867367367367367,0.7592592592592592,0.5060118248251565,0.4889669846695851,0.4822209044770392
0.513256628314157,0.8048048048048047,0.7142142142142142,1.0,0.4099168076460226,0.5180686118911
0.0,0.4709709709709709,0.4034034034034034,0.6072222125329194,1.0,0.3732302003941608
0.6110555277638818,0.4451951951951951,0.7494994994994995,0.5084535291347646,0.4823743830336432,0.0783630116678584
0.4722361180590295,0.2897897897897897,0.2432432432432432,0.9916982053473324,1.0,0.6354988925126881
0.2658829414707353,1.0,0.927927927927928,0.0245548249821232,0.0334513490416311,1.0
0.5420210105052525,0.6859359359359358,0.7257257257257257,0.0,0.4775973629593456,0.559410154001779
0.5975487743871936,0.4424424424424423,0.6463963963963963,0.3770148420740534,0.0,0.2982995273558086
0.0745372686343171,0.5435435435435434,0.0075075075075075,0.854306991994698,0.0,0.4743010621413747
0.4994997498749374,0.5030030030030029,0.7565065065065064,0.5018766241693845,0.4936829621361424,0.4983518495910145
0.5037518759379689,0.564064064064064,0.756006006006006,0.5127125590805239,0.509721471301254,1.0
0.5192596298149074,0.4031531531531531,0.7142142142142142,0.2883495822941556,0.1894605577550273,1.0
0.4617308654327163,0.4514514514514514,0.7652652652652652,0.4934998343129218,0.4872577916528594,0.0
0.9997498749374686,0.6018518518518517,0.2887887887887888,0.9072762788426322,0.0131695066013219,1.0
0.3194097048524262,0.6093593593593593,0.7387387387387387,0.5102708547709158,0.5041508973263338,1.0
0.5755377688844422,0.4684684684684684,0.7655155155155156,0.5172297120532989,0.4786193906203673,0.4244449482881909
0.4219609804902451,0.7452452452452452,0.7147147147147146,0.0,0.5963252350140398,0.5779828034253623
0.4997498749374687,0.5025025025025024,0.7557557557557557,0.5018016289655894,0.4937579573399375,0.4983361529204527
0.5002501250625312,0.5025025025025024,0.757007007007007,0.5018312782322061,0.4937736540104993,0.4984128921987547
0.4704852426213106,0.5347847847847846,0.7695195195195195,0.4609327310462703,0.4906151350785706,1.0
0.0997998999499749,1.0,0.83008008008008,0.0371906447843452,1.0,0.0
0.4884942471235617,0.7307307307307306,0.7302302302302301,0.9460383347576607,0.4706071123358389,0.4489980291958072
0.2031015507753876,0.4101601601601601,0.4084084084084084,0.5730523047944608,0.0,0.2836649981687217
0.4994997498749374,0.5025025025025024,0.7562562562562563,0.5018469749027679,0.4936062228578405,0.4983675462615763
0.4962481240620309,0.6186186186186186,0.745995995995996,0.5135218096517083,0.5031131729947503,1.0
0.4777388694347173,0.4659659659659659,0.7865365365365364,0.6114794984041718,0.5548476550918255,0.0
0.4534767383691845,0.502002002002002,0.6729229229229229,0.5714965903343391,0.4515007761131555,0.000915639116103
0.7951475737868934,0.7292292292292291,0.1781781781781782,0.0393567853218689,0.8715053107068733,0.4270244344838411
0.9834917458729364,0.0,0.0,0.1095871775642255,0.0858102098121632,0.7456354535465755
0.5262631315657829,0.5723223223223222,0.6524024024024023,0.0,0.399706995482847,0.4606571672741859
0.8484242121060529,1.0,0.901901901901902,0.8018556952753022,1.0,0.0
0.4739869934967483,0.4039039039039038,0.6866866866866866,0.0,0.5466365523135148,0.5265849277081117
0.4999999999999999,0.5025025025025024,0.7562562562562563,0.5018155815616443,0.4936829621361424,0.4983814988576312
0.4279639819909954,0.5748248248248247,0.7515015015015014,0.5210753963409317,0.4709594153862253,0.0
0.4799899949974987,0.5135135135135134,0.8015515515515514,0.3433489718680782,0.2866717826185535,1.0
0.4997498749374687,0.5025025025025024,0.7562562562562563,0.5018766241693845,0.4935748295167169,0.4983361529204527
0.4992496248124061,0.5025025025025024,0.7562562562562563,0.5018312782322061,0.4935591328461552,0.4984285888693165
0.0,1.0,1.0,0.6156303957305056,0.0,0.9198964019742925
0.4997498749374687,0.5025025025025024,0.7555055055055054,0.5019080175105081,0.4936672654655807,0.4983518495910145
0.5300150075037519,0.3903903903903903,0.6984484484484484,0.2111010342361826,0.4885850323525821,0.4634197812930568
0.3614307153576788,0.2319819819819819,0.1544044044044044,0.5524356000488341,0.9869211852730349,0.2711826569231037
0.4742371185592796,0.4289289289289288,0.8776276276276276,0.995482847027225,0.4755672602333571,0.4516089087325811
0.5440220110055027,0.7662662662662661,0.5457957957957957,0.3140799134939044,0.168583985907878,0.4153182063937771
0.5530265132566282,0.4937437437437436,0.7812812812812813,0.4130142839702112,0.4499904075902122,1.0
0.4992496248124061,0.5027527527527527,0.756006006006006,0.5018312782322061,0.4937126114027591,0.4985192807436733
0.42096048024012,0.4912412412412411,0.7597597597597596,0.4976507316392556,0.4973594711966095,0.5068681654080263
0.4184592296148073,0.5340340340340339,0.7417417417417417,0.6072065158623576,0.6639307951235677,0.0
0.4817408704352175,0.5207707707707707,0.8188188188188188,0.0,0.6490050054938347,0.4515007761131555
0.5180090045022511,0.5110110110110109,0.6756756756756757,1.0,0.5443465824860038,0.4870136212218986
0.372936468234117,0.4504504504504503,0.3701201201201201,0.0644906430402706,0.0,0.7076512548616076
0.4997498749374687,0.5025025025025024,0.7565065065065064,0.5018609274988227,0.4936062228578405,0.4983971955281929
0.4997498749374687,0.5025025025025024,0.7562562562562563,0.5018923208399463,0.4935905261872787,0.4985035840731116
0.40120060030015,0.4224224224224223,0.7632632632632632,0.4963688368767113,0.4892408043671625,0.4544622146258088
0.7226113056528263,1.0,0.6956956956956957,1.0,0.0,0.0
0.4237118559279639,0.4134134134134133,0.5395395395395395,0.235563423269442,0.0,0.7976751486823517
0.4999999999999999,0.5025025025025024,0.756006006006006,0.5019080175105081,0.4936672654655807,0.4984285888693165
0.4894947473736868,0.6736736736736736,0.6423923923923923,0.0,0.5010987669393236,0.4199417479114707
0.4917458729364681,0.7319819819819818,0.6774274274274273,0.0,0.3453947712646284,0.4234211765526623
0.5125062531265632,0.6336336336336336,0.7487487487487487,0.0,0.6542703664300539,0.4476550918255227
0.6235617808904451,0.5200200200200199,0.7349849849849849,0.4728360395556098,0.5433716448366674,1.0
0.4997498749374687,0.5025025025025024,0.7562562562562563,0.5019690601182483,0.4937126114027591,0.4983814988576312
0.4997498749374687,0.5025025025025024,0.7565065065065064,0.5019533634476865,0.4936515687950189,0.4984442855398782
0.1598299149574787,0.5325325325325324,0.5640640640640641,0.5569980989587875,0.0,0.2528384812599194
0.5790395197598799,0.4502002002002001,0.8606106106106105,0.0,1.0,0.5255001133648429
0.9997498749374686,0.584084084084084,0.6541541541541541,0.3953729703332926,0.6483038875420758,0.454599996511851
0.4122061030515257,0.582082082082082,0.7437437437437437,0.6882100563336065,0.6203149798559394,0.0
0.5387693846923461,0.6346346346346345,0.7409909909909909,0.0,0.5693287057223084,0.5028079599560493
0.4612306153076537,0.4704704704704704,0.7017017017017017,0.5653923295603188,0.8448593403910215,0.0
0.48024012006003,0.4609609609609609,0.6904404404404404,0.6072675584700978,0.5877949666009732,0.0
0.3841920960480239,0.4947447447447446,0.7702702702702702,0.50550953136718,0.4929957967804385,0.7800634843120497
0.5002501250625312,0.5030030030030029,0.7562562562562563,0.5018923208399463,0.4936829621361424,0.4983675462615763
0.4997498749374687,0.5027527527527527,0.7562562562562563,0.5019376667771247,0.4935591328461552,0.4983971955281929
0.4999999999999999,0.5022522522522521,0.7562562562562563,0.5019080175105081,0.4937126114027591,0.4983518495910145
0.4999999999999999,0.5025025025025024,0.7562562562562563,0.5018766241693845,0.4937422606693758,0.4983971955281929
0.489744872436218,0.4827327327327326,0.7557557557557557,0.5849259640371837,0.5315886774683014,0.0
0.6935967983991995,0.4984984984984984,0.7655155155155156,0.4882641226433193,0.4786350872909291,0.0841167134659992
0.4794897448724362,0.5973473473473473,0.7477477477477477,0.5043340251495544,0.4819156914383382,0.0
0.5597798899449724,0.4652152152152151,0.7742742742742742,0.4755062176256169,0.6235955840033486,0.0
0.4999999999999999,0.5025025025025024,0.7562562562562563,0.50198475678881,0.4937283080733209,0.4984285888693165
0.4902451225612806,0.324074074074074,0.6511511511511511,0.7810558627064548,0.5006714686851422,0.5345658126515165
0.4824912456228113,0.4464464464464464,0.7790290290290289,0.4527373249385213,0.5152153059978722,0.7351361250152606
0.4499749874937468,0.5337837837837837,0.755005005005005,0.5288278075239374,0.3973106371104173,0.6801820813785164
0.5547773886943471,0.6966966966966965,0.6168668668668669,0.6446552836737185,0.440743324554825,0.5103929399863962
0.3686843421710855,0.5683183183183182,0.7312312312312312,0.5024730976507317,0.4900500549383469,0.6919633046723757
0.6908454227113556,0.862112112112112,0.5758258258258258,0.2282540070111795,0.0076303259675253,1.0
0.523511755877939,0.578078078078078,0.7997997997997998,0.5504822366011476,0.4284580637284825,0.2836039555609815
0.5042521260630315,0.6246246246246245,0.7084584584584583,1.0,0.5998500095924097,0.5711913772956381
0.9997498749374686,0.0,0.0,0.0,0.0,0.2090866281807559
0.4999999999999999,0.5030030030030029,0.756006006006006,0.5018609274988227,0.4936358721244571,0.4984128921987547
0.5067533766883441,0.5117617617617617,0.7467467467467467,0.0,0.5712663724994331,0.5160088598984949
0.4994997498749374,0.5022522522522521,0.7565065065065064,0.5017702356244659,0.4936358721244571,0.4983971955281929
0.4997498749374687,0.5027527527527527,0.7565065065065064,0.5018766241693845,0.4935748295167169,0.4983675462615763
0.596048024012006,0.7152152152152151,0.5325325325325325,0.0697873973176134,0.282351710065054,0.5565568481085512
0.4954977488744371,0.4139139139139138,0.7902902902902902,0.6921464324955962,0.4784973054048869,0.5038160350210161
0.2633816908454227,0.4612112112112111,0.2817817817817818,1.0,0.0,0.0
0.3794397198599299,0.5998498498498498,0.7740240240240239,0.4891187191516821,0.5322461935573888,0.8291870868723512
0.2296148074037018,0.3588588588588588,0.1026026026026026,1.0,0.0,0.4284127177913041
0.4979989994997498,0.4569569569569569,0.7502502502502502,0.5497950712454436,0.3960287423478731,1.0
0.533016508254127,0.6844344344344343,0.7379879879879879,1.0,0.4862497165878926,0.5209079651882729
0.2488744372186093,0.0465465465465465,0.0045045045045045,0.0,1.0,0.2198597764096482
0.7381190595297648,0.8048048048048047,0.3836336336336336,0.0,1.0,0.0
0.4999999999999999,0.5030030030030029,0.7565065065065064,0.5019219701065629,0.4936201754538954,0.4984128921987547
0.0,0.9994994994994992,1.0,0.2756684165547552,1.0,0.0
0.4252126063031515,0.5848348348348348,0.7942942942942943,0.546163908122155,0.4677851997837348,0.7430106214137469
0.9949974987493746,0.9784784784784784,0.5457957957957957,0.0,1.0,0.0
0.4997498749374687,0.5030030030030029,0.756006006006006,0.5018312782322061,0.4936515687950189,0.4984128921987547
0.4499749874937468,0.6766766766766765,0.6436436436436436,0.4757817813977013,0.5027765666149258,0.5330397474580114
0.7668834417208603,0.4451951951951951,0.7372372372372371,0.886232275842824,1.0,0.0
0.1850925462731366,0.3606106106106105,0.825075075075075,0.4420252193173692,0.2161972199452361,0.5784240542755986
1.0,0.3538538538538538,0.1033533533533533,0.2918900535430874,1.0,0.6451139752690235
0.4757378689344672,0.5087587587587586,0.4907407407407407,0.0,0.5530303294556743,0.5234857073094162
0.1308154077038519,0.2675175175175174,0.1656656656656657,0.0,1.0,0.5324746673177878
0.296648324162081,0.3028028028028027,0.2022022022022022,0.0,0.0,0.6077088093203341
0.5730365182591295,0.7595095095095095,0.8278278278278277,0.4885850323525821,0.4942166489352425,0.583750457819558
0.4869934967483741,0.4456956956956956,0.7019519519519519,0.0,0.4940335211120219,0.5175488776880548
0.4922461230615307,0.7299799799799799,0.6804304304304304,0.0,0.5005040375324834,0.5135218096517083
0.4869934967483741,0.5450450450450449,0.7572572572572571,0.5318345919737691,0.4892111551005459,1.0
0.993496748374187,1.0,1.0,0.2172209916807646,1.0,0.0
0.5032516258129064,0.4887387387387386,0.7392392392392392,0.4191638906814099,0.7419728970821633,0.0
0.5167583791895948,0.553053053053053,0.8088088088088088,0.5210893489369866,0.3762509374400474,0.0
0.4999999999999999,0.5030030030030029,0.7562562562562563,0.5018766241693845,0.4936829621361424,0.4983361529204527
0.0,0.4299299299299298,0.4296796796796797,0.7471458220695187,1.0,0.8118509862741337
0.4999999999999999,0.5027527527527527,0.7562562562562563,0.5018469749027679,0.4936515687950189,0.4983518495910145
0.0,0.822072072072072,0.1446446446446446,0.937309241850812,1.0,0.7554022707850079
0.2998999499749875,0.4779779779779779,0.7552552552552552,0.519442942602508,0.4879135636674399,0.476803809058723
0.412456228114057,0.5065065065065064,0.7682682682682682,0.5014964159268884,0.4740411950398521,0.0
0.453976988494247,0.5395395395395395,0.781031031031031,0.4120219055758062,0.4289917505275825,0.7306486213091024
0.4997498749374687,0.5025025025025024,0.7565065065065064,0.5019080175105081,0.4936358721244571,0.4983971955281929
0.4997498749374687,0.5025025025025024,0.7562562562562563,0.5017702356244659,0.4937283080733209,0.4983222003243978
0.4837418709354676,0.5210210210210209,0.7535035035035034,0.4699984303329438,0.2993372516873921,0.8300120341140973
0.4814907453726862,1.0,0.6724224224224223,0.4631459615954794,1.0,0.0
0.7523761880940469,0.8478478478478477,0.9469469469469468,1.0,0.0,1.0
0.4674837418709354,0.4234234234234233,0.77002002002002,0.675162634947765,0.7362034986134607,0.0
0.484992496248124,0.3676176176176176,0.7772772772772771,0.0,0.5603397457139369,0.5367023039224236
0.3899449724862431,0.6671671671671671,0.307057057057057,1.0,0.0,0.2166559115405409
0.308904452226113,0.1621621621621621,0.7247247247247247,0.497085651499032,0.2116504177058444,0.4415368784554476
0.6663331665832916,1.0,1.0,0.1137223782199975,0.988128084831784,0.292455133683311
0.4997498749374687,0.5027527527527527,0.7565065065065064,0.5018312782322061,0.4936515687950189,0.4983814988576312
0.6058029014507254,0.5713213213213212,0.7547547547547546,0.518297085651499,0.4775973629593456,0.0792490015173448
0.4999999999999999,0.5030030030030029,0.7562562562562563,0.5018312782322061,0.4936672654655807,0.4983222003243978
0.4997498749374687,0.5022522522522521,0.7562562562562563,0.5018609274988227,0.4936829621361424,0.4983814988576312
0.4444722361180589,0.4752252252252251,0.824074074074074,0.3542755986535745,0.3400230217834906,1.0
0.6070535267633816,0.5190190190190189,0.752002002002002,0.5039363761619896,0.4988855363901145,0.6827005249664265
0.4399699849924962,0.7267267267267266,0.7615115115115114,0.9990390149467184,0.3551912377696775,0.5010830702687619
0.0,0.0983483483483482,1.0,0.6582834818703455,0.1730714896140363,0.7308788391440082
0.4807403701850924,0.3573573573573573,0.7117117117117117,0.1709506950136909,0.4664876083506287,0.476116643703019
0.6933466733366682,0.4689689689689689,0.9426926926926926,0.0816750091563912,1.0,0.8844463435477963
0.4884942471235617,0.5718218218218217,0.3838838838838839,1.0,0.0,0.0
0.534017008504252,0.7352352352352352,0.793043043043043,1.0,0.4603676509060467,0.5157175994558487
0.4669834917458729,0.4604604604604603,0.8228228228228227,0.3040985750911279,0.3313689240804367,1.0
0.5535267633816908,0.5285285285285284,0.7692692692692692,0.4997261803024225,0.6335298323944398,0.0
0.5660330165082541,0.633133133133133,0.7627627627627627,0.6480736697071698,0.5569074070844307,1.0
0.4877438719359679,0.384134134134134,0.7887887887887888,0.0,0.6085947991698205,0.515231002668434
0.4367183591795897,0.5047547547547546,0.746996996996997,0.6882257530041683,0.6501037724331583,0.0
0.516008004002001,0.658158158158158,0.6211211211211211,1.0,0.5071262884350419,0.5398154769171739
0.0,0.3646146146146145,0.5595595595595595,0.4972687793222526,1.0,0.661991384271936
0.9997498749374686,0.6076076076076075,0.5,0.2737760957148089,0.6424281005284546,1.0
0.5060030015007503,0.5815815815815815,0.6746746746746746,1.0,0.5429582991785409,0.4888745487207213
0.5280140070035017,0.683183183183183,0.6574074074074073,0.8158641017144252,0.5003348623053177,0.514238624274029
0.4999999999999999,0.5025025025025024,0.7562562562562563,0.5018923208399463,0.4936515687950189,0.4983675462615763
0.5347673836918458,0.5002502502502502,0.8408408408408408,1.0,0.3627151751922842,0.4988715837940596
0.6430715357678839,0.3953953953953953,0.5608108108108107,0.881256431274744,0.9997715262396007,0.449013725866369
0.3856928464232115,0.583083083083083,0.744994994994995,0.5244170430960811,0.4756283028410973,0.1708129131276488
0.4634817408704351,0.4309309309309308,0.5713213213213213,0.0,0.4712646284249263,0.4927062804122992
0.3496748374187093,0.5655655655655655,0.6989489489489489,0.5528018556952753,0.643465824860038,0.0
0.4367183591795897,0.4887387387387386,0.6961961961961962,0.5949369517065769,0.5276679979768736,0.0
0.4994997498749374,0.502002002002002,0.7552552552552552,0.5016777996756021,0.493803303277116,0.4983971955281929
0.78064032016008,0.7825325325325323,0.7097097097097096,0.0043340251495544,0.9944451226956416,0.6811448105063048
0.5002501250625312,0.5027527527527527,0.756006006006006,0.5018609274988227,0.4936515687950189,0.4983518495910145
0.5815407703851925,0.581081081081081,0.7542542542542542,0.4625965781258175,0.2966060310096447,0.2572178523466523
0.4999999999999999,0.5025025025025024,0.7562562562562563,0.5019376667771247,0.4936969147321973,0.4983675462615763
0.8889444722361179,0.0,0.1138638638638638,0.0002895163681392,0.1718349407886705,0.1855538308596543
0.4412206103051525,0.4974974974974974,0.7257257257257257,0.7296579869892041,0.4716605333379842,0.0
1.0,0.3168168168168167,0.0,0.7308788391440082,9.06918743569518e-05,0.62348919545843
0.5482741370685342,0.5487987987987987,0.4324324324324324,1.0,0.9027887751364738,0.4982454610460959
0.2728864432216107,0.1258758758758758,0.9029029029029028,0.116362907023388,0.918706943160612,0.2203638139421316
0.5667833916958479,0.4859859859859859,0.7945445445445445,0.4695554354082006,0.4856235938399288,0.0
0.9704852426213104,0.9426926926926926,0.0025025025025025,0.0,1.0,0.0
0.5080040020010005,0.7307307307307306,0.5940940940940941,0.0,0.4417950014824633,0.4824807715785618
0.4999999999999999,0.4159159159159158,0.6956956956956957,0.0,0.5453843068175872,0.5819348762579137
0.6868434217108553,0.4882382382382381,0.9246746746746746,0.0003819523170029,1.0,0.5167570678619391
0.5002501250625312,0.5022522522522521,0.7562562562562563,0.5018766241693845,0.4936515687950189,0.4984128921987547
0.4927463731865932,0.4144144144144143,0.7882882882882882,0.5513664823761271,0.7102760869944365,0.0
0.4942471235617808,0.6436436436436435,0.6794294294294294,1.0,0.5253623314788007,0.4678915883286534
0.5450225112556277,0.4957457457457456,0.7502502502502502,1.0,0.4065734168163664,0.4924603659068315
0.4999999999999999,0.5030030030030029,0.7565065065065064,0.5019376667771247,0.4936672654655807,0.4984582381359331
0.557528764382191,0.9276776776776776,0.294044044044044,0.0,0.0620960287423479,0.0
0.4909954977488744,0.4599599599599598,0.7464964964964964,0.5490329106859445,0.4532117132043881,0.3135305300242426
0.4982491245622811,0.4439439439439439,0.7007007007007007,1.0,0.5105917644801786,0.4230549209062211
0.5670335167583791,0.6046046046046045,0.6726726726726726,0.6315625163506985,0.6934893698658806,0.0
0.2766383191595797,0.325075075075075,0.7034534534534533,0.0727470917557598,0.0,0.5898704152641401
0.208104052026013,0.6351351351351351,0.1073573573573573,0.2582102307410573,0.0,0.0
0.4999999999999999,0.5025025025025024,0.756006006006006,0.5017702356244659,0.4936969147321973,0.4983222003243978
0.4182091045522761,0.5112612612612611,0.7657657657657657,0.6326002406822819,0.5224479829778328,0.0
0.1203101550775387,0.3385885885885885,0.6381381381381381,0.3111655649929364,1.0,1.0
0.9967483741870934,0.2747747747747747,0.5573073073073073,0.6504700280795995,0.8900465667893331,0.2444913406700734
0.5175087543771886,0.0,0.0,0.0,0.0151839126567487,0.3040218358128259
0.4999999999999999,0.5027527527527527,0.756006006006006,0.5018923208399463,0.4936969147321973,0.4984285888693165
0.4997498749374687,0.5027527527527527,0.756006006006006,0.5018923208399463,0.4936969147321973,0.4983518495910145
0.0240120060030015,0.9146646646646646,0.6376376376376376,0.6507141985105603,0.0123916493712611,0.7996581613966549
0.5022511255627813,0.4959959959959959,0.7344844844844844,0.4957723633953642,0.5932888012975914,0.3315677485742191
0.5400200100050024,0.7642642642642641,0.7605105105105104,0.1361407119312137,0.5330537000540663,0.5476585799745365
0.5225112556278139,0.3533533533533532,0.7537537537537538,0.9025916947171984,0.4247501613268919,0.4803128869665312
0.5402701350675337,0.6736736736736736,0.611111111111111,0.9620001046444704,0.5175959676997401,0.5509252315258908
0.4469734867433716,0.4779779779779779,0.75,0.4354326176814274,0.5277586898512304,0.0
0.5097548774387193,0.6811811811811811,0.642142142142142,0.0448820133596107,0.4153635523309555,0.5303835219840591
0.4804902451225612,0.6601601601601601,0.6263763763763763,0.9970385614873468,0.4150286900256379,0.466152746045311
0.7593796898449223,0.613113113113113,0.1378878878878879,0.3548406787937981,0.8039468406090309,0.2867781711634721
0.0347673836918459,0.3846346346346345,0.7657657657657657,0.3341786281109929,1.0,0.0
0.4569784892446222,0.4877377377377376,0.7865365365365364,0.5026562254739523,0.539967211399271,0.9175924795507264
0.5172586293146573,0.7157157157157156,0.7545045045045045,0.0,0.535373319148194,0.4862357639918377
0.4997498749374687,0.5027527527527527,0.7562562562562563,0.5018609274988227,0.4935748295167169,0.4983814988576312
0.6670835417708854,0.4484484484484484,0.4254254254254254,1.0,0.5497793745748818,0.6570783263861032
0.9997498749374686,0.8368368368368366,0.6166166166166166,0.0,0.7653836091877846,1.0
0.5660330165082541,0.5092592592592592,0.7895395395395395,0.6423217119835359,0.5834905907180354,9.06918743569518e-05
0.4329664832416208,0.1761761761761761,0.1976976976976976,0.5608141339798036,0.7986047403945097,0.2482445890088425
0.5675337668834417,0.3596096096096095,0.7772772772772771,0.5092331304393324,0.485684636447669,0.0
0.4847423711855927,0.6536536536536536,0.5097597597597597,1.0,0.1791147077803164,0.3413206132165966
0.4999999999999999,0.5027527527527527,0.7565065065065064,0.5018923208399463,0.4936969147321973,0.4983518495910145
0.5022511255627813,0.5060060060060059,0.7572572572572571,0.4992064460993773,0.495406107748923,0.4964298794844515
0.5307653826913457,0.6056056056056055,0.7232232232232232,0.0,0.629609152903012,0.4970403055618536
0.4047023511755877,0.5543043043043042,0.7194694694694694,0.4917435512845108,0.4901721401538274,0.7104138688804785
0.4997498749374687,0.5025025025025024,0.7562562562562563,0.5018155815616443,0.4936969147321973,0.4984128921987547
0.4932466233116557,0.5305305305305305,0.7697697697697696,1.0,0.4225072815110661,0.4770636761602456
0.5242621310655327,0.4557057057057056,0.7712712712712713,0.5284755044735511,0.4811221375377156,0.9251321136438948
0.4997498749374687,0.5027527527527527,0.7562562562562563,0.5018923208399463,0.4936515687950189,0.4984442855398782
0.4302151075537768,0.5155155155155154,0.7349849849849849,0.4495788060065926,0.5338176046880723,1.0
0.5062531265632816,0.6799299299299298,0.6436436436436436,0.0,0.5799361668730488,0.5158257320752743
0.0065032516258128,0.9794794794794792,0.8460960960960959,1.0,0.0,1.0
0.4999999999999999,0.5027527527527527,0.7562562562562563,0.5018766241693845,0.4936358721244571,0.4984128921987547
0.7296148074037018,0.8243243243243241,0.5032532532532532,0.8168268308422135,0.9513943875682368,0.8470568742696687
0.4997498749374687,0.5025025025025024,0.7565065065065064,0.5018609274988227,0.4937283080733209,0.4984442855398782
0.8199099549774886,0.4797297297297296,0.4164164164164164,0.733044979681532,0.999909308125643,0.5334216997750144
0.535767883941971,0.7087087087087086,0.7207207207207207,0.9745155833057187,0.3818825540227079,0.4505101417932574
0.6160580290145072,0.5435435435435434,0.7582582582582582,0.4835027992395835,0.5395399131450895,1.0
0.5002501250625312,0.5042542542542542,0.7530030030030029,0.4953293684706211,0.5012818947625443,0.4899576189894832
0.5107553776888444,0.4924924924924924,0.7827827827827827,0.4235746551092663,0.5154280830877095,0.7882745870903605
0.4992496248124061,0.5035035035035034,0.756006006006006,0.5018923208399463,0.4937579573399375,0.4984442855398782
0.3884442221110555,0.5613113113113112,0.7692692692692692,0.4953293684706211,0.5004116015836196,0.4928580148943963
0.8534267133566782,1.0,0.5853353353353353,0.0,0.3441582224392626,0.6315468196801367
0.4999999999999999,0.5027527527527527,0.7565065065065064,0.5018609274988227,0.4936672654655807,0.4984128921987547
0.371935967983992,0.5445445445445445,0.5898398398398398,0.7028899314578718,0.5608141339798036,0.0
0.5342671335667833,0.4359359359359358,0.7452452452452452,0.3508729092906849,0.3015208329699844,1.0
0.5107553776888444,0.5242742742742742,0.7527527527527527,0.5026701780700071,0.4841132253169855,0.0
0.4997498749374687,0.5025025025025024,0.7565065065065064,0.5018766241693845,0.4936672654655807,0.4984582381359331
0.2451225612806403,0.6218718718718718,0.6679179179179179,0.7680066972461064,0.9991000575544586,0.9955281929644032
0.6118059029514756,0.7890390390390389,0.6231231231231231,0.0,1.0,0.0
0.4994997498749374,0.5025025025025024,0.7562562562562563,0.5019690601182483,0.4936062228578405,0.4983814988576312
0.4159579789894947,0.4779779779779779,0.71996996996997,0.4650382824354256,0.5425920435320997,0.9966112632331654
0.1650825412706353,0.302052052052052,0.4747247247247247,0.7449639848614333,0.0,0.9998482655179028
0.5255127563781891,0.6278778778778777,0.745995995995996,1.0,0.447168495038108,0.5123149100929592
0.4997498749374687,0.5025025025025024,0.7562562562562563,0.5018923208399463,0.4937126114027591,0.4983675462615763
0.5642821410705352,0.4684684684684684,0.7737737737737738,0.5267366621902088,0.5053264035439594,0.9891797617594223
0.4699849924962481,0.6886886886886886,0.6048548548548548,0.7505642081029702,0.5057833510647575,0.4533791443570469
0.4674837418709354,0.627127127127127,0.6261261261261261,0.0787449639848614,0.2982995273558086,0.4904163105847882
0.4969984992496247,0.7062062062062061,0.592092092092092,0.8184592845806373,0.5063484312049811,0.4571480893663777
0.4594797398699349,0.4729729729729729,0.8085585585585585,0.4339675950956625,0.5273470882676108,0.0
0.5830415207603801,0.7655155155155153,0.7797797797797796,0.0,0.6135078570556534,0.4741632802553325
0.4354677338669334,0.4969969969969969,0.8405905905905906,0.4121300381952317,0.2881368052043183,1.0
0.4254627313656828,0.5915915915915915,0.7535035035035034,0.5089279174006314,0.4936969147321973,0.1236426740150339
0.9094547273636816,0.0,0.0578078078078078,0.9394143397805954,0.9956502781798836,0.4979542006034498
0.5002501250625312,0.5022522522522521,0.7562562562562563,0.5018312782322061,0.4937126114027591,0.4983675462615763
0.9262131065532764,0.0,0.2617617617617618,0.2130230043427455,0.1351640302073704,0.3307602420775415
0.5802901450725362,0.4869869869869869,0.7587587587587588,0.4994802657969548,0.4935137869089767,0.2228369115928632
0.4654827413706853,0.2492492492492492,0.7219719719719719,0.639253884925964,0.5322601461534436,0.413029980640773
0.2718859429714857,0.4261761761761761,0.9024024024024024,0.6048555034271064,0.0,0.1132654306991994
0.4602301150575287,0.372122122122122,0.700950950950951,0.8891919702809704,0.4884943404782252,0.5050665364424368
0.549024512256128,0.5192692692692692,0.7575075075075075,0.5029596944381464,0.5038910302248112,1.0
0.4317158579289644,0.4824824824824824,0.7672672672672671,0.5080872734883234,0.462565184784694,0.1419694089331496
0.5145072536268134,0.6103603603603602,0.6671671671671671,0.862197185063746,0.5262936672654656,0.488128084831784
0.5012506253126563,0.5062562562562561,0.7575075075075075,0.573877252036207,0.5752498386731081,0.2869002563789525
0.5982991495747874,0.5698198198198198,0.767017017017017,0.5615762945393027,0.6892320839946282,0.0
0.0,0.4544544544544543,0.2787787787787787,0.2526553534366988,0.0,0.9623820569614734
0.392696348174087,0.4316816816816816,0.2304804804804804,1.0,0.9887995535169262,0.0
0.4669834917458729,0.4064064064064063,0.720970970970971,0.0004429949247432,0.4550272947660324,0.5413101487695554
0.253376688344172,0.1186186186186186,0.3696196196196196,0.8846608647121406,0.2758968903151543,0.780429739958491
0.535767883941971,0.4331831831831831,0.7424924924924925,1.0,0.477490974414427,0.4135340181732563
0.4399699849924962,0.4474474474474473,0.7112112112112111,0.5886181697682125,0.3480492526640738,1.0
0.6230615307653826,0.5022522522522521,0.7625125125125125,0.502532396183965,0.4943683834173396,0.1732232240961334
0.3754377188594296,0.3405905905905905,0.4164164164164164,1.0,0.0,0.2956903918935417
0.5002501250625312,0.5025025025025024,0.7562562562562563,0.50198475678881,0.4936515687950189,0.4983814988576312
0.7073536768384191,0.4962462462462461,0.6253753753753754,0.5234717547133614,0.9896541500252892,0.8459598514048521
0.5005002501250625,0.5027527527527527,0.7565065065065064,0.5018766241693845,0.4936829621361424,0.4984128921987547
0.0,0.4862362362362361,0.5030030030030029,0.7410119120288818,1.0,0.5202347524286237
0.5215107553776888,0.5610610610610609,0.7832832832832832,0.0,0.5209829603920679,0.5095993860857736
0.4889944972486242,0.3566066066066065,0.7172172172172171,0.6945427908680258,0.5362750056682422,0.4330205626384359
0.4809904952476238,0.4894894894894894,0.7642642642642642,0.6142264157524809,0.5680468109597642,0.0
0.7396198099049524,0.8498498498498497,0.7612612612612613,0.0,1.0,0.0
0.550025012506253,0.4104104104104103,0.1894394394394394,0.6057711425432094,1.0,0.8599682578439751
0.9969984992496248,0.6846846846846846,0.5975975975975976,0.5512304445645918,0.9948567242792612,0.0
0.413456728364182,0.2762762762762762,0.3771271271271271,0.0,1.0,0.7838934719291208
0.5425212606303151,0.1624124124124123,0.2314814814814814,1.0,0.9987477545040724,0.6649685194551511
0.4994997498749374,0.5025025025025024,0.7562562562562563,0.5019219701065629,0.4936829621361424,0.4984128921987547
0.556528264132066,0.5357857857857857,0.7532532532532532,0.5190452936149432,0.4646877234595462,0.0
0.3949474737368684,0.523023023023023,0.7505005005005004,0.4883862078587997,0.4956049322427054,0.3049531715994907
0.4997498749374687,0.5025025025025024,0.7562562562562563,0.5018155815616443,0.4937283080733209,0.4983971955281929
0.4994997498749374,0.5027527527527527,0.756006006006006,0.5019987093848649,0.4936672654655807,0.4983675462615763
0.4999999999999999,0.5022522522522521,0.7562562562562563,0.5017405863578492,0.4937422606693758,0.4984442855398782
0.5782891445722861,0.4817317317317316,0.756006006006006,0.4954985436977868,0.5014336292446413,0.7199522123585119
0.6370685342671335,1.0,0.567067067067067,0.0,0.993255663881961,0.0
0.8709354677338669,1.0,0.5157657657657657,1.0,0.0007639046340059,0.7574009801698729
0.4994997498749374,0.5025025025025024,0.756006006006006,0.5020144060554267,0.4936672654655807,0.4984896314770567
0.5425212606303151,0.647147147147147,0.6604104104104104,1.0,0.3584735859915935,0.4460226380870991
0.5117558779389695,0.3656156156156155,0.7362362362362361,0.8228247030713152,0.4642133351936794,0.5115527495334601
0.601800900450225,0.5783283283283283,0.7374874874874874,0.5111864938870189,0.4877147391736575,0.5462545999965118
0.6883441720860429,0.6571571571571571,0.1584084084084084,1.0,0.0001674311526588,0.8406944904686329
0.4487243621810905,0.3748748748748748,0.781031031031031,0.0,0.5946927812756161,0.5043183284789926
0.5002501250625312,0.5027527527527527,0.7567567567567567,0.5020597519926051,0.4935905261872787,0.4984128921987547
0.3424212106053026,0.6003503503503502,0.7545045045045045,0.5008232031672393,0.4751399619791757,0.0
0.4994997498749374,0.5025025025025024,0.7565065065065064,0.5018155815616443,0.4936515687950189,0.4984128921987547
0.5290145072536268,0.6228728728728727,0.7134634634634633,0.0,0.376128852224567,0.5159478172907547
0.0,0.4594594594594594,0.8698698698698698,0.1274569649615431,0.0,0.8917557598060589
0.4104552276138069,0.5057557557557557,0.7662662662662663,0.4870886164256937,0.5030521303870101,0.4600781345379074
0.4997498749374687,0.5025025025025024,0.756006006006006,0.5018923208399463,0.4937283080733209,0.4983971955281929
0.7848924462231115,0.391141141141141,0.8075575575575575,0.4066658527652301,1.0,0.8512548616076878
0.4999999999999999,0.5027527527527527,0.7562562562562563,0.5019533634476865,0.4936969147321973,0.4984128921987547
0.4952476238119059,0.4076576576576576,0.2855355355355355,0.2438198719849312,0.1646615623419433,0.3024957706193208
0.5050025012506253,0.7292292292292291,0.6093593593593594,0.3514833353680869,0.4469696705443257,0.5513978757172506
0.2021010505252626,0.4439439439439439,1.0,0.8558330571882031,0.2805221759073548,0.4485253850044474
0.4112056028014006,0.5325325325325324,0.7915415415415414,0.5119957444582033,0.5001988244937824,1.0
0.4932466233116557,0.4939939939939939,0.7672672672672671,0.5082407520449274,0.4737063327345344,0.0
0.593296648324162,0.4769769769769769,0.7582582582582582,0.4972234333850742,0.5089436140711932,0.8724662957601549
0.987743871935968,0.719219219219219,0.2012012012012012,0.664372045973804,0.7178453703542216,0.7812389905296754
0.5395197598799399,0.5392892892892892,0.7937937937937938,0.513397980361721,0.4324868758393358,0.929633569946108
0.3304152076038018,0.5190190190190189,0.2952952952952953,0.0,1.0,1.0
0.404952476238119,0.5397897897897896,0.6644144144144144,0.3911610303992187,0.0,0.0
0.3934467233616808,0.5975975975975975,0.4627127127127127,1.0,0.1034515234490817,0.3907180354744755
0.4022011005502751,0.5092592592592592,0.7417417417417417,0.3517432024696095,0.2944381463976141,1.0
0.4532266133066532,0.3973973973973973,0.7234734734734735,0.0,0.5207387899611071,0.5274691734830912
0.7808904452226112,0.7837837837837837,0.4527027027027027,1.0,0.0,1.0
0.4059529764882441,0.3833833833833833,0.245995995995996,0.5479341437466209,0.0,0.4480073948759091
0.5037518759379689,0.7329829829829828,0.7024524524524525,0.0,0.3837434815215306,0.4677398538465563
0.7061030515257628,0.6601601601601601,0.3125625625625625,1.0,0.0,0.2045380818668574
0.6390695347673836,0.2515015015015014,0.4139139139139139,1.0,0.6997314125259431,0.9015225770444912
0.7156078039019509,0.5187687687687687,0.2227227227227227,0.0506357151577515,1.0,1.0
0.4372186093046523,1.0,0.36011011011011,0.0,0.0,0.0
0.9989994997498748,1.0,1.0,0.978268831644488,1.0,0.0023196190941277
0.4769884942471235,0.348098098098098,0.3936436436436436,0.6657760259518286,0.2213701449325915,0.577325287336275
0.7586293146573286,0.3485985985985985,0.2042042042042042,1.0,1.0,1.0
0.7253626813406703,1.0,0.5267767767767767,0.865186528768509,0.8133317055304603,0.7006923975792245
0.453976988494247,0.338088088088088,0.746996996996997,0.3667282906325758,0.7038509165111534,0.0
0.3329164582291145,0.2692692692692692,0.269019019019019,0.0805151996093272,1.0,0.2183790571533215
0.6440720360180089,0.4872372372372371,0.7732732732732732,0.4909813907250118,0.5229520205103162,0.9986727593002772
0.4509754877438718,0.5858358358358358,0.7397397397397396,0.5220520780647749,0.5052653609362192,1.0
0.5227613806903451,0.4744744744744744,0.7662662662662663,0.50198475678881,0.4988401904529361,0.5767009086628181
0.4724862431215607,0.5402902902902902,0.7577577577577577,0.5255001133648429,0.4821302126026824,0.0
0.504752376188094,0.894144144144144,0.7732732732732732,0.8782356942288574,0.0,1.0
0.4297148574287143,0.5843343343343342,0.7054554554554554,0.5635750039241676,0.4940631703786385,0.0
0.4917458729364681,0.7369869869869868,0.6501501501501501,0.0008859898494863,0.5088354814517676,0.5384725395468895
0.2991495747873937,0.8576076076076075,0.5950950950950951,0.3140642168233427,0.3025271639604444,0.5955613303800338
1.0,0.5695695695695695,0.995995995995996,0.111235327973211,0.6437256919615606,0.5981408165756841
0.0100050025012506,0.1378878878878878,0.6181181181181181,0.6654865095836894,0.2599508170989064,0.1406578649039887
0.4982491245622811,0.5315315315315314,0.7545045045045045,0.4890733732145037,0.8142926905837418,0.0
0.5225112556278139,0.5550550550550549,0.3225725725725725,1.0,1.0,0.6368732232240961
0.3114057028514256,0.4892392392392392,0.7635135135135135,0.4943840800879013,0.5076460226380871,0.8229310916162338
0.4379689844922461,0.567067067067067,0.7715215215215214,0.4370807680904128,0.4730191673788304,0.4835184959101453
0.5072536268134067,0.7014514514514514,0.6033533533533533,0.4641976385231177,0.4488009487765317,0.4945515112405602
0.4882441220610304,0.6629129129129128,0.6646646646646646,0.493803303277116,0.4595584003348623,0.4871043130962554
0.5485242621310654,0.6323823823823823,0.7540040040040039,0.5008842457749795,0.4717983152240264,0.0
0.4937468734367183,0.6926926926926926,0.6048548548548548,0.6458307898913441,0.5015714111306835,0.4449709611594607
0.5017508754377188,1.0,1.0,0.0744562847724855,1.0,0.0
0.4709854927463731,0.3703703703703703,0.5755755755755756,0.3648063205260128,0.4465266756195825,0.5343966374243507
0.5002501250625312,0.5027527527527527,0.7562562562562563,0.5018312782322061,0.4937283080733209,0.4983971955281929
0.0,0.4907407407407406,0.0,0.7601635941887437,0.0,0.2147478940300329
0.4427213606803401,0.3533533533533532,0.3188188188188188,0.0037846416798926,0.7569440326490748,0.0966757939899192
0.4997498749374687,0.5025025025025024,0.7557557557557557,0.5018766241693845,0.4937126114027591,0.4984128921987547
0.4899949974987493,0.4411911911911911,0.7497497497497497,0.3674154559882798,0.4364092994052706,1.0
0.4762381190595297,0.6003503503503502,0.7337337337337337,0.5592113295079966,0.4466034148978844,0.0
0.501000500250125,0.4026526526526526,0.8198198198198197,0.0,0.4840364860386835,0.5370232136316864
0.4997498749374687,0.5025025025025024,0.7562562562562563,0.50198475678881,0.4936358721244571,0.4983675462615763
0.4344672336168083,0.5355355355355355,0.7587587587587588,0.5022585764863875,0.4880966914906605,0.2404014859514798
0.2991495747873937,0.5417917917917917,0.7525025025025025,0.4892721977082861,0.5021364912709071,0.670263529657987
0.5015007503751875,0.4044044044044043,0.8213213213213213,0.0,0.5934108865130718,0.5169855416223381
0.4644822411205602,0.4707207207207206,0.7565065065065064,0.4973298219299928,0.5017545389539041,0.4917139020178942
0.5370185092546272,0.9997497497497496,0.7194694694694694,0.9344245426164606,0.0,1.0
0.4967483741870935,0.4004004004004003,0.7687687687687688,0.9998482655179028,0.4056734743708251,0.4909813907250118
0.5577788894447223,0.4056556556556556,0.474974974974975,0.9242461237944084,0.0,0.4661370493747493
0.516008004002001,0.5177677677677677,0.7592592592592592,0.5047613234037358,0.5240664841202016,1.0
0.9997498749374686,0.2572572572572572,0.9264264264264264,0.0915953049514275,0.4121439907912866,0.7498316968100878
0.4914957478739369,0.6949449449449449,0.6676676676676676,0.0,0.5009609850532815,0.4388806529814953
0.4017008504252125,0.5447947947947946,0.7119619619619619,0.4851962955857474,0.5243873938294644,0.9167535797129254
0.456728364182091,0.4762262262262261,0.7695195195195195,0.4246577253780281,0.5354657550970577,1.0
0.4999999999999999,0.5025025025025024,0.7565065065065064,0.5019219701065629,0.4936829621361424,0.4983971955281929
0.5352676338169083,0.7122122122122121,0.8008008008008007,0.7869769956572545,0.430945113975269,0.3293248687583934
0.7043521760880439,0.2414914914914914,0.2787787787787787,0.9514257809093604,1.0,0.0003366063798245
0.5712856428214106,0.5247747747747746,0.7572572572572571,0.5119486544465179,0.4859758968903152,0.3628529570783264
0.0042521260630315,0.8986486486486485,0.8363363363363363,0.0166035893053351,1.0,0.0
0.4619809904952475,0.4879879879879879,0.8628628628628627,0.5471248931754364,0.5565254547674277,0.3777926993041143
0.4274637318659329,0.5087587587587586,0.756006006006006,0.5216247798105935,0.5034183860334513,1.0
0.428464232116058,0.581081081081081,0.7582582582582582,0.5017405863578492,0.4861590247135358,0.0002895163681392
0.4942471235617808,0.6504004004004003,0.6263763763763763,0.0,0.4798105935085547,0.5740150339222492
0.9997498749374686,0.0387887887887887,0.0855855855855856,0.6155536564522036,0.3921691054641854,0.7971257652126899
0.4997498749374687,0.5025025025025024,0.7562562562562563,0.5018766241693845,0.4936829621361424,0.4984896314770567
0.5605302651325662,0.5508008008008007,0.7532532532532532,0.5187854265134206,0.4839614908348885,0.0
0.4409704852426213,0.5030030030030029,0.7582582582582582,0.3626227392434205,0.246277272965101,0.9994959624675166
0.3791895947973986,0.417167167167167,0.5735735735735735,0.8862165791722623,0.7550813610757452,0.3211905052583846
0.2313656828414206,0.2132132132132131,0.832082082082082,0.7931719483056316,0.1964647609745888,0.5169855416223381
0.4182091045522761,0.518018018018018,0.7434934934934935,0.5204806669340915,0.504745626733174,1.0
0.5387693846923461,0.3996496496496495,0.6669169169169169,0.999923260721698,0.5004726441913598,0.5218375569004308
0.4999999999999999,0.5025025025025024,0.7562562562562563,0.5018766241693845,0.4936515687950189,0.4983675462615763
0.513256628314157,0.5487987987987987,0.7397397397397396,0.0,0.6072065158623576,0.4972687793222526
0.4152076038019009,0.6108608608608608,0.7885385385385384,0.4013394492212707,0.3584578893210318,1.0
1.0,0.5052552552552552,0.9494494494494494,0.4117027399410503,1.0,0.1798158257320752
0.4399699849924962,0.5175175175175174,0.757007007007007,0.4716919266791077,0.5322148002162652,1.0
0.6933466733366682,0.4814814814814814,0.7640140140140139,0.5163751155449361,0.4792769067094546,0.3007726250065403
0.4799899949974987,0.62012012012012,0.6849349349349348,1.0,0.4192109806930952,0.4871810523745574
0.6770885442721359,0.2675175175175174,0.3748748748748748,0.6881333170553046,1.0,0.047398712873014
0.5032516258129064,0.5185185185185184,0.7602602602602602,0.4981844184383557,0.4948567242792612,0.4404677607827406
0.5062531265632816,0.5598098098098097,0.7367367367367367,0.4464202870746638,0.3242897256570801,1.0
0.520760380190095,0.592092092092092,0.6941941941941941,0.0,0.4606571672741859,0.5515513542738546
0.4857428714357178,0.4434434434434433,0.7685185185185185,0.4226590159931632,0.6274412682909813,1.0
0.020760380190095,1.0,0.9286786786786786,1.0,0.6675166123096778,0.8384812599194238
0.4999999999999999,0.5025025025025024,0.756006006006006,0.5018609274988227,0.4936515687950189,0.4983814988576312
0.5005002501250625,0.5027527527527527,0.7555055055055054,0.5020301027259885,0.4936358721244571,0.4984128921987547
0.5195097548774387,0.5010010010010009,0.2675175175175175,0.0,1.0,0.9486928161571062
0.4639819909954977,0.4704704704704704,0.7494994994994995,0.4924760625773933,0.4918202905628128,0.5262326246577254
0.9997498749374686,0.0,0.2042042042042042,0.2431780525664056,0.7331217189598339,0.4960636238380103
0.5072536268134067,0.5310310310310309,0.7477477477477477,0.5060432181662801,0.4782688316444878,0.0013429373702844
0.0697848924462231,0.5345345345345345,0.6076076076076076,0.8378708338420218,0.2705704867711949,0.5267523588607705
0.7493746873436717,0.574074074074074,0.2304804804804804,0.0,1.0,0.7852817552365837
0.4099549774887443,0.4584584584584584,0.4236736736736736,1.0,0.0,0.0084849224758882
0.5180090045022511,0.6849349349349348,0.6363863863863863,0.0,0.6600083715576329,0.3980431484032998
0.2306153076538269,0.5102602602602602,0.1176176176176176,0.4505397910598741,0.0,0.1273034864049392
0.534017008504252,0.557057057057057,0.7269769769769769,1.0,0.4311125451279278,0.5211817848858503
0.5445222611305652,0.5127627627627627,0.7655155155155156,0.5004116015836196,0.5144967473010447,1.0
0.5145072536268134,0.5112612612612611,0.7354854854854854,0.5468807227444756,0.5109876693932365,0.0
0.7038519259629814,0.2892892892892892,0.261011011011011,0.0,0.0006261227479637,0.3783577794443379
0.4999999999999999,0.5030030030030029,0.757007007007007,0.5019690601182483,0.4936358721244571,0.4983675462615763
0.9997498749374686,0.5725725725725724,0.9874874874874876,0.0611036503479428,0.8739173657498649,1.0
0.9997498749374686,0.0225225225225225,0.0813313313313313,0.5393428327258141,0.4489683799291906,0.4680590194813122
0.5895447723861931,0.507007007007007,0.762012012012012,0.5057990477353193,0.4968414810680712,0.8194359663044806
0.4994997498749374,0.5030030030030029,0.7562562562562563,0.5018766241693845,0.4936969147321973,0.4983971955281929
0.4354677338669334,0.5267767767767767,0.8851351351351351,0.4100685421281197,0.6229398119887681,1.0
0.4997498749374687,0.5025025025025024,0.7562562562562563,0.5018312782322061,0.4935294835795385,0.4983971955281929
0.6603301650825412,0.6256256256256255,0.577077077077077,1.0,0.7082616809390097,1.0
0.4199599799899949,0.9954954954954952,0.9797297297297296,0.0,1.0,0.0
0.3404202101050525,0.5500500500500499,0.567067067067067,0.322992134223974,0.806463540122434,0.0
0.5395197598799399,0.614114114114114,0.7522522522522521,0.5319409805186878,0.4618483701623733,0.0
0.4994997498749374,0.6228728728728727,0.6901901901901901,1.0,0.4301515600746464,0.559410154001779
0.9997498749374686,0.3563563563563563,1.0,1.0,0.947564399951166,0.0
0.4684842421210605,0.4774774774774774,0.757007007007007,0.5024574009801699,0.4987024085668939,0.5857805605455465
0.5272636318159079,0.527027027027027,0.7545045045045045,0.510637110417357,0.480633796675794,0.6637773165669637
0.5502751375687843,0.5372872872872871,0.7279779779779779,0.5737848160873432,0.5189685543366412,0.7521373633081605
0.501000500250125,0.5030030030030029,0.7562562562562563,0.5018766241693845,0.4936515687950189,0.4984285888693165
0.2351175587793896,0.2615115115115115,0.6829329329329329,0.5555191237769678,0.0,0.29718680782043
0.473736868434217,0.5092592592592592,0.7697697697697696,0.3970368174128398,0.5123306067635209,1.0
0.4487243621810905,0.5593093093093092,0.6904404404404404,0.5518862165791723,0.3682700524966427,0.0
0.5052526263131565,0.3903903903903903,0.7932932932932932,0.0077681078535675,0.5399986047403945,0.5109876693932365
0.5212606303151576,0.6273773773773773,0.7755255255255256,1.0,0.3685752655353437,0.4834121073652266
0.6530765382691345,0.6103603603603602,0.7434934934934935,0.4850288644330885,0.5234089680311143,1.0
0.5597798899449724,0.4742242242242241,0.7655155155155156,0.5372202940509618,0.5513664823761271,1.0
0.4194597298649324,0.5350350350350349,0.7489989989989989,0.3966391684252751,0.5418298829726006,0.0
0.295647823911956,1.0,0.8886386386386386,1.0,0.0,1.0
0.4997498749374687,0.5022522522522521,0.7565065065065064,0.5018766241693845,0.4937283080733209,0.4983361529204527
0.4997498749374687,0.5025025025025024,0.7557557557557557,0.5019533634476865,0.4936672654655807,0.4983518495910145
0.4862431215607803,0.5417917917917917,0.7865365365365364,0.4555452848945707,0.5361982663899402,0.9372185499764548
0.5182591295647824,0.5825825825825824,0.7282282282282282,1.0,0.3812267820081274,0.5541744423321764
0.5617808904452225,0.5903403403403402,0.5025025025025025,1.0,0.7832220032439785,0.4157158553813419
0.4997498749374687,0.5027527527527527,0.7565065065065064,0.5018766241693845,0.4936358721244571,0.4983222003243978
0.4954977488744371,0.6699199199199198,0.5603103103103103,0.4339362017545389,0.5272703489893088,0.4605961246664457
0.8639319659829914,1.0,0.7404904904904904,0.5973315660044998,0.8811203934632088,0.0
0.5400200100050024,0.538038038038038,0.781031031031031,0.5821790466888745,0.4580637284824808,1.0
0.4464732366183091,0.559059059059059,0.7117117117117117,0.4149833440884594,0.5551057781188412,0.938057449814256
0.6778389194597297,0.8453453453453452,0.5973473473473473,0.9998325688473412,0.9508903500357536,1.0
0.5005002501250625,0.5025025025025024,0.756006006006006,0.5019219701065629,0.4937283080733209,0.4983675462615763
0.4282141070535267,0.5355355355355355,0.7572572572572571,0.4993738772520362,0.5073861555365645,0.8280883199330276
0.5030015007503751,0.6914414414414414,0.6273773773773773,0.236022114864747,0.5011144636098854,0.5040898547185936
0.5280140070035017,0.507007007007007,0.7474974974974975,0.4305492090622111,0.5893506810610949,1.0
0.0,0.5122622622622621,0.0107607607607608,0.7863665695798524,0.0,0.2210806285644522
0.4504752376188093,0.4737237237237236,0.4679679679679679,1.0,0.0,0.0
0.6353176588294146,0.5092592592592592,0.6393893893893894,0.8009243594886373,0.4963688368767113,0.4157158553813419
0.4799899949974987,0.6776776776776776,0.566066066066066,0.3989587875194028,0.4713396236287214,0.5325200132549662
0.8001500750375187,1.0,0.3603603603603603,0.6941765352215846,0.0,0.0
0.6145572786393196,0.8626126126126125,0.7825325325325325,0.0376318956345815,0.589031515426339,0.3636761602455657
0.4994997498749374,0.5025025025025024,0.7565065065065064,0.5019080175105081,0.4936515687950189,0.4983065036538361
0.1625812906453226,0.3455955955955955,0.331081081081081,0.907748923033992,1.0,0.0
0.5467733866933466,0.7224724724724724,0.9752252252252251,0.978955997000192,0.9448628285400352,0.1220555662137886
0.4999999999999999,0.5025025025025024,0.7562562562562563,0.5018312782322061,0.4936062228578405,0.4984128921987547
0.4997498749374687,0.5027527527527527,0.7565065065065064,0.5018312782322061,0.4937126114027591,0.4983222003243978
0.4659829914957478,0.2242242242242241,0.6646646646646646,0.0348099830824772,0.5159931632279331,0.5256675445175018
0.5290145072536268,0.4972472472472471,0.7179679679679679,1.0,0.5644766904442158,0.4482655179029248
0.512256128064032,0.3916416416416415,0.7037037037037036,0.8679648394579416,0.5129863787781014,0.5021207946003453
0.7268634317158579,0.8893893893893892,0.8353353353353352,0.431403805570574,0.2435443082128468,0.6885763119800478
0.3259129564782391,1.0,0.8838838838838838,0.972501177250292,0.7245147112684653,0.7077436908104714
0.4744872436218108,0.5025025025025024,0.3971471471471471,0.0001831278232206,0.0,0.0
0.5117558779389695,0.2830330330330329,0.544044044044044,0.3366953276243961,0.0,1.0
0.5210105052526263,0.604104104104104,0.6829329329329329,1.0,0.4127701135392504,0.6313479951863543
0.4997498749374687,0.5027527527527527,0.7562562562562563,0.5018155815616443,0.4936515687950189,0.4983971955281929
0.3686843421710855,0.3636136136136135,0.7034534534534533,0.2545930202138236,0.8701466766660271,0.4937893506810611
0.4994997498749374,0.5025025025025024,0.7562562562562563,0.5018312782322061,0.4936358721244571,0.4983814988576312
0.3849424712356177,0.5340340340340339,0.7730230230230231,0.3253867485218968,0.40008894779985,0.9220485899157612
0.5480240120060029,0.5583083083083082,0.7892892892892892,0.4927655789455326,0.3645307567539285,0.6865776025951829
0.8156578289144572,1.0,0.7630130130130129,0.0,0.0018626715733295,0.6898425100720302
0.4957478739369684,0.6539039039039038,0.7605105105105104,0.0,0.3780682630761986,0.5222962484957357
0.4997498749374687,0.5025025025025024,0.7562562562562563,0.5018469749027679,0.4937579573399375,0.4984128921987547
0.3699349674837418,0.6026026026026025,0.7497497497497497,0.490737220294051,0.5191970280970403,0.9987338019080174
0.5652826413206603,0.4989989989989989,0.757007007007007,0.5059821755585399,0.4970403055618536,0.6509269756003977
0.597048524262131,0.5628128128128127,0.8348348348348348,0.4654045380818669,0.4983814988576312,0.0
0.4999999999999999,0.5035035035035034,0.757007007007007,0.5020301027259885,0.4935905261872787,0.4984285888693165
0.4864932466233116,0.4804804804804804,0.7515015015015014,0.4900954008755254,0.49096569405445,0.5181610478399638
0.557528764382191,0.5037537537537536,0.7707707707707707,0.5435233793187645,0.4656940544500061,0.4026073913877601
0.4052026013006503,0.5505505505505505,0.765015015015015,0.3110888257146345,0.60542058356733,0.5287353715750737
0.7611305652826412,0.5678178178178177,0.3536036036036036,1.0,0.4582015103685229,0.152805343844289
0.5405202601300649,0.6266266266266265,0.7182182182182182,0.5677886879327485,0.4559568864781903,1.0
0.6053026513256627,0.5523023023023022,0.7567567567567567,0.4976193382981321,0.4779636186057868,0.2721436419763853
0.5277638819409705,0.7034534534534533,0.6496496496496496,0.2239653277988035,0.5651324624587962,0.4473812721279453
0.220360180090045,0.7269769769769768,0.542042042042042,0.8078535675044038,0.3339344576800321,0.0
0.4582291145572786,0.5150150150150149,0.7374874874874874,0.3686816540802623,0.3226555278441495,1.0
0.4994997498749374,0.5025025025025024,0.7562562562562563,0.5018609274988227,0.4937736540104993,0.4983518495910145
0.7653826913456727,0.0015015015015014,0.4206706706706706,0.9597886181697682,0.8292934754172698,0.7245147112684653
0.5275137568784392,0.5310310310310309,0.7582582582582582,0.5277586898512304,0.473812721279453,0.0
0.4519759879939969,0.5708208208208208,0.7532532532532532,0.4908732581055863,0.5526187278720547,1.0
0.5255127563781891,1.0,0.5908408408408408,1.0,0.8086157280639028,0.5874897535622722
0.4617308654327163,0.4151651651651651,0.75,0.0,0.6256570800704606,0.4597118788914662
0.6553276638319159,0.5290290290290289,0.7172172172172171,0.5009470324572266,0.4082686572370372,0.0
0.3786893446723361,0.4804804804804804,0.7497497497497497,0.4911488218776706,0.4904477039259117,0.0707030364337165
0.4997498749374687,0.5025025025025024,0.7565065065065064,0.5019690601182483,0.4936358721244571,0.4984582381359331
0.5045022511255627,0.394144144144144,0.7234734734734735,0.2884263215724576,0.4970996040950869,0.4218497654219788
0.5432716358179089,0.5265265265265264,0.781031031031031,0.4597118788914662,0.4597572248286447,0.4624587962397753
0.5465232616308153,0.5402902902902902,0.7762762762762763,0.4569492648725953,0.5945846486561905,0.0
0.4994997498749374,0.5025025025025024,0.756006006006006,0.5018766241693845,0.4936515687950189,0.4983361529204527
0.4997498749374687,0.5027527527527527,0.7562562562562563,0.5018923208399463,0.4936969147321973,0.4984442855398782
0.7788894447223611,0.2134634634634634,0.0,0.4055060432181663,0.0506496677538064,0.5508641889181506
0.4722361180590295,0.6919419419419418,0.5868368368368369,0.9998482655179028,0.5310410380731465,0.5016638470795473
0.5012506253126563,0.3796296296296295,0.7937937937937938,0.399019830127143,0.4687758341036329,0.4555766782356942
0.6938469234617308,0.5262762762762762,0.7685185185185185,0.4831068943265256,0.4898215811779479,0.0
0.4459729864932465,0.1946946946946946,0.811061061061061,0.0778293248687584,0.9226747126637248,0.7631703786385755
0.5002501250625312,0.5025025025025024,0.7575075075075075,0.5018766241693845,0.4936969147321973,0.4984582381359331
0.4907453726863431,0.6704204204204203,0.6831831831831832,0.0065926016359419,0.4395521216666376,0.5610879536773811
0.5280140070035017,0.7127127127127126,0.847097097097097,0.0,0.6073129044072763,0.504670631529379
0.5007503751875937,0.5027527527527527,0.7565065065065064,0.5018155815616443,0.4936969147321973,0.4984128921987547
0.3824412206103051,0.5365365365365364,0.1794294294294294,0.3840504386347385,1.0,1.0
0.0590295147573787,0.3926426426426426,0.0022522522522522,0.9391701693496346,0.0,0.0155205190365732
0.6338169084542271,0.2660160160160159,0.0,0.0,0.0,0.8338263250606066
0.4409704852426213,0.5452952952952952,0.7515015015015014,0.497467603816035,0.4930097493764934,0.4687461848370162
0.4994997498749374,0.5027527527527527,0.756006006006006,0.5019219701065629,0.4936969147321973,0.4983814988576312
0.5012506253126563,0.4882382382382381,0.7772772772772771,0.6397561783839405,0.723004342745522,0.0
0.4302151075537768,0.5482982982982982,0.3733733733733734,0.0198388475155658,0.1523013063118056,0.0847724854805797
0.5802901450725362,0.5112612612612611,0.5950950950950951,0.2321764305771142,1.0,0.0
0.4997498749374687,0.5025025025025024,0.7562562562562563,0.5019533634476865,0.4936672654655807,0.4982908069832743
0.432216108054027,0.6544044044044043,0.7885385385385384,1.0,0.5991331949700891,0.508347140589846
0.5410205102551275,0.2945445445445445,0.3408408408408409,0.14760102551581,0.0,1.0
0.6098049024512255,1.0,1.0,1.0,0.0,1.0
0.5152576288144072,0.6684184184184183,0.6273773773773773,0.5853061722796797,0.4437954549418351,0.4900204056717303
0.4997498749374687,0.5027527527527527,0.756006006006006,0.50198475678881,0.4936201754538954,0.4983065036538361
0.3734367183591796,0.5588088088088087,0.7540040040040039,0.5045485463138986,0.4994663132008999,0.727917400631355
0.5287643821910955,0.7354854854854853,0.6501501501501501,0.1274726616321049,0.4514100842387987,0.4709594153862253
0.1028014007003501,0.8138138138138137,0.6911911911911912,0.6362767497427491,1.0,0.0
0.4864932466233116,0.5513013013013012,0.7252252252252251,0.3574201649894483,0.6100912150967089,1.0
0.5375187593796897,0.5140140140140139,0.9384384384384384,0.6080907616373371,1.0,0.0
0.4999999999999999,0.5022522522522521,0.7565065065065064,0.5018923208399463,0.4936672654655807,0.4984442855398782
0.296648324162081,0.6236236236236236,0.7865365365365364,0.5941887437431327,0.6036189546017405,0.5749603223049689
0.6820910455227613,0.7049549549549549,0.1961961961961962,0.0005179901285383,0.8837748748626542,0.046697594921255
0.4387193596798399,0.9687187187187186,0.5935935935935935,0.3708495386922929,0.0,1.0
0.5312656328164082,0.5565565565565564,0.7452452452452452,0.5108359349111394,0.509644732022952,1.0
0.4992496248124061,0.5025025025025024,0.7562562562562563,0.5018609274988227,0.4937283080733209,0.4984128921987547
0.4574787393696848,0.5085085085085084,0.7297297297297297,0.5445768003209097,0.5468196801367354,0.0
0.4992496248124061,0.5027527527527527,0.7562562562562563,0.5018923208399463,0.4935905261872787,0.4984285888693165
0.6510755377688844,0.2690190190190189,0.5392892892892893,0.8974641156670213,0.0402113818302317,0.4154245949386957
0.6285642821410704,0.3506006006006005,0.3748748748748748,1.0,0.522203812546872,0.7305736261053072
0.4997498749374687,0.5025025025025024,0.7562562562562563,0.5017859322950277,0.4937283080733209,0.4984582381359331
0.5105052526263131,0.3756256256256255,0.6066066066066066,0.4743778014196766,0.3177110766171931,0.7203795106126933
0.3224112056028013,0.4717217217217216,0.4051551551551551,0.5743795454941835,1.0,0.9922929347541728
0.4997498749374687,0.5022522522522521,0.7562562562562563,0.5018923208399463,0.4936201754538954,0.4983675462615763
0.4464732366183091,1.0,0.9774774774774774,0.9697385632314212,0.0,1.0
0.5155077538769384,0.5525525525525524,0.7677677677677677,0.4337373772607565,0.4981983710344106,1.0
0.5485242621310654,0.0497997997997997,0.4401901901901902,1.0,0.9855782479027504,0.8937405165948689
0.3949474737368684,0.5390390390390389,0.7099599599599599,0.3901843486753754,0.4625041421769538,0.7912656748696304
0.4439719859929965,0.4784784784784784,0.7590090090090089,0.4886774683014458,0.4956973681915691,0.4881873833650174
0.1708354177088544,0.038038038038038,0.2174674674674675,1.0,0.0,0.5446674921952666
0.8439219609804902,0.5015015015015014,0.736986986986987,0.0,0.2893262640179989,1.0
0.4762381190595297,0.5377877877877877,0.7525025025025025,0.5064094738127213,0.4837940596822296,0.3833929225456511
0.0030015007503751,0.0,0.0845845845845846,0.0,1.0,0.4262151839126568
0.504752376188094,0.5297797797797796,0.7019519519519519,1.0,0.4699984303329438,0.5095383434780334
0.4999999999999999,0.5027527527527527,0.7565065065065064,0.50198475678881,0.4936358721244571,0.4983675462615763
0.4997498749374687,0.5027527527527527,0.7562562562562563,0.5019080175105081,0.4936062228578405,0.4983814988576312
0.5157578789394697,0.6604104104104103,0.6816816816816816,1.0,0.4999686066588765,0.5100563336065717
0.5745372686343171,0.5117617617617617,0.7572572572572571,0.4923243280952962,0.5090186092749882,0.7397300172663376
0.4992496248124061,0.7617617617617616,0.6586586586586586,1.0,0.5128189476254426,0.5359087500218009
0.5145072536268134,0.4261761761761761,0.7525025025025025,0.5115527495334601,0.477032282819122,0.0
0.5002501250625312,0.502002002002002,0.755005005005005,0.5018312782322061,0.4936062228578405,0.4983518495910145
0.4999999999999999,0.5025025025025024,0.756006006006006,0.5019080175105081,0.4936829621361424,0.4985035840731116
0.3931965982991495,0.5372872872872871,0.7094594594594594,0.4125555923749062,0.3983640581125626,0.4953450651411828
0.5427713856928463,0.4649649649649648,0.7905405405405405,0.5956537663288975,0.4116416973333101,0.0
0.5007503751875937,0.4832332332332331,0.7690190190190189,0.4963060501944643,0.5025794861956503,0.5573347053386121
0.5545272636318158,0.5065065065065064,0.7805305305305306,0.5415543192005162,0.4646720267889844,0.6442750754312224
0.5002501250625312,0.5022522522522521,0.7565065065065064,0.5019533634476865,0.4937422606693758,0.4983518495910145
0.468984492246123,0.4619619619619619,0.6759259259259258,0.0,0.5877025306521094,0.5309939480614612
0.5012506253126563,0.5785785785785784,0.8378378378378377,0.5667492195266581,0.5118579625721611,0.0
0.5035017508754377,0.7019519519519518,0.6141141141141141,0.9732790344803528,0.4531349739260861,0.5192441181087256
