Ax,Ay,Az,Gx,Gy,Gz,Label
0.49999999999999994,0.502002002002002,0.7567567567567567,0.50198475678881,0.4935905261872787,0.49845823813593315,0
0.4997498749374687,0.5022522522522521,0.756006006006006,0.5019533634476865,0.4936672654655807,0.4983814988576312,0
0.4989994997498749,0.5022522522522521,0.7562562562562563,0.5018923208399463,0.4936672654655807,0.49839719552819295,0
0.4994997498749374,0.5022522522522521,0.7562562562562563,0.5018923208399463,0.4936515687950189,0.4983675462615763,0
0.49999999999999994,0.5022522522522521,0.7562562562562563,0.5019080175105081,0.4936672654655807,0.49841289219875473,0
0.4994997498749374,0.5025025025025024,0.7562562562562563,0.5019219701065629,0.4936201754538954,0.49841289219875473,0
0.49924962481240615,0.5022522522522521,0.756006006006006,0.5018016289655894,0.4936672654655807,0.49839719552819295,0
0.49999999999999994,0.502002002002002,0.7562562562562563,0.5019690601182483,0.49363587212445714,0.4984285888693165,0
0.49999999999999994,0.5022522522522521,0.7565065065065064,0.5018923208399463,0.49369691473219735,0.4984285888693165,0
0.49924962481240615,0.5025025025025024,0.7565065065065064,0.5019690601182483,0.4937126114027591,0.49839719552819295,0
0.4994997498749374,0.5022522522522521,0.756006006006006,0.5019690601182483,0.4936672654655807,0.49841289219875473,0
0.4997498749374687,0.5022522522522521,0.7562562562562563,0.5018766241693845,0.4936672654655807,0.4984285888693165,0
0.49999999999999994,0.502002002002002,0.7562562562562563,0.5019219701065629,0.4935294835795385,0.49835184959101453,0
0.4994997498749374,0.5022522522522521,0.7565065065065064,0.50198475678881,0.4936201754538954,0.4984285888693165,0
0.49924962481240615,0.5025025025025024,0.7562562562562563,0.5018923208399463,0.4936515687950189,0.4983814988576312,0
0.4997498749374687,0.502002002002002,0.7562562562562563,0.5018766241693845,0.4936062228578405,0.4982594136421508,0
0.4994997498749374,0.502002002002002,0.756006006006006,0.5018155815616443,0.49363587212445714,0.4984285888693165,0
0.49924962481240615,0.5022522522522521,0.7565065065065064,0.5019080175105081,0.4936062228578405,0.49839719552819295,0
0.4997498749374687,0.5022522522522521,0.756006006006006,0.5019376667771247,0.49369691473219735,0.4984285888693165,0
0.4997498749374687,0.5022522522522521,0.7562562562562563,0.5018923208399463,0.49368296213614243,0.49835184959101453,0
0.49924962481240615,0.5022522522522521,0.7565065065065064,0.5019533634476865,0.49369691473219735,0.4984285888693165,0
0.4994997498749374,0.5022522522522521,0.7565065065065064,0.5019376667771247,0.49363587212445714,0.49839719552819295,0
0.49999999999999994,0.5022522522522521,0.7565065065065064,0.5019080175105081,0.49375795733993755,0.4983814988576312,0
0.4994997498749374,0.5022522522522521,0.7562562562562563,0.5019080175105081,0.4936201754538954,0.49833615292045275,0
0.4989994997498749,0.5022522522522521,0.7565065065065064,0.5018923208399463,0.49368296213614243,0.49844428553987824,0
0.4994997498749374,0.5022522522522521,0.7565065065065064,0.5019219701065629,0.49363587212445714,0.4983814988576312,0
0.4997498749374687,0.5022522522522521,0.7562562562562563,0.50198475678881,0.4936672654655807,0.49845823813593315,0
0.49999999999999994,0.502002002002002,0.7562562562562563,0.5019080175105081,0.49357482951671694,0.4984896314770567,0
0.49924962481240615,0.5022522522522521,0.7565065065065064,0.5019219701065629,0.4935905261872787,0.4984285888693165,0
0.49924962481240615,0.5022522522522521,0.7565065065065064,0.5018469749027679,0.4936515687950189,0.49845823813593315,0
0.4997498749374687,0.5022522522522521,0.756006006006006,0.5018609274988227,0.49363587212445714,0.49845823813593315,0
0.4997498749374687,0.502002002002002,0.7562562562562563,0.5018312782322061,0.4937283080733209,0.4983814988576312,0
0.4994997498749374,0.5025025025025024,0.7565065065065064,0.5018155815616443,0.4936515687950189,0.49841289219875473,0
0.4994997498749374,0.5022522522522521,0.7567567567567567,0.5019690601182483,0.4936672654655807,0.4984285888693165,0
0.4997498749374687,0.5022522522522521,0.7562562562562563,0.5019376667771247,0.49363587212445714,0.49841289219875473,0
0.4997498749374687,0.5022522522522521,0.7565065065065064,0.5018609274988227,0.49368296213614243,0.4983814988576312,0
0.49849924962481235,0.502002002002002,0.7555055055055054,0.5017702356244659,0.49369691473219735,0.49841289219875473,0
0.4997498749374687,0.5025025025025024,0.7565065065065064,0.5016638470795473,0.493803303277116,0.49844428553987824,0
0.49924962481240615,0.5017517517517517,0.757007007007007,0.5018609274988227,0.4936201754538954,0.4983675462615763,0
0.4989994997498749,0.5025025025025024,0.7567567567567567,0.5018312782322061,0.4937422606693758,0.49839719552819295,0
0.4994997498749374,0.5022522522522521,0.7567567567567567,0.5019376667771247,0.49368296213614243,0.49847393480649493,0
0.4997498749374687,0.5022522522522521,0.7577577577577577,0.5020144060554267,0.4935294835795385,0.49835184959101453,0
0.4997498749374687,0.502002002002002,0.7562562562562563,0.5018016289655894,0.49368296213614243,0.49841289219875473,0
0.49924962481240615,0.5022522522522521,0.7565065065065064,0.5019219701065629,0.4936062228578405,0.49839719552819295,0
0.4997498749374687,0.502002002002002,0.7562562562562563,0.5019219701065629,0.4935905261872787,0.49844428553987824,0
0.49999999999999994,0.5022522522522521,0.7565065065065064,0.5018923208399463,0.4935451802501003,0.4983814988576312,0
0.4994997498749374,0.502002002002002,0.7562562562562563,0.5018155815616443,0.4937126114027591,0.4983675462615763,0
0.49924962481240615,0.5025025025025024,0.7565065065065064,0.5019376667771247,0.4935905261872787,0.49841289219875473,0
0.49999999999999994,0.5027527527527527,0.7557557557557557,0.5018609274988227,0.4936201754538954,0.4984285888693165,0
0.4997498749374687,0.5025025025025024,0.7567567567567567,0.5019533634476865,0.4936062228578405,0.4983814988576312,0
0.49924962481240615,0.5022522522522521,0.7557557557557557,0.5018609274988227,0.4937893506810611,0.49841289219875473,0
0.4994997498749374,0.5022522522522521,0.7557557557557557,0.5017545389539041,0.4936672654655807,0.49845823813593315,0
0.4997498749374687,0.5022522522522521,0.7565065065065064,0.5019219701065629,0.49369691473219735,0.4983675462615763,0
0.4994997498749374,0.5022522522522521,0.7562562562562563,0.5018155815616443,0.4936672654655807,0.49844428553987824,0
0.4989994997498749,0.5025025025025024,0.7567567567567567,0.5018469749027679,0.49363587212445714,0.49839719552819295,0
0.4994997498749374,0.5022522522522521,0.756006006006006,0.5019376667771247,0.49368296213614243,0.49847393480649493,0
0.5002501250625312,0.5017517517517517,0.7565065065065064,0.5019533634476865,0.4936201754538954,0.49845823813593315,0
0.49924962481240615,0.5025025025025024,0.7565065065065064,0.5018766241693845,0.4937126114027591,0.49844428553987824,0
0.4994997498749374,0.5025025025025024,0.7562562562562563,0.5019690601182483,0.4936515687950189,0.4983814988576312,0
0.49999999999999994,0.5027527527527527,0.7567567567567567,0.5019533634476865,0.49363587212445714,0.49839719552819295,0
0.5002501250625312,0.5022522522522521,0.756006006006006,0.5019219701065629,0.4936672654655807,0.49847393480649493,0
0.4997498749374687,0.5022522522522521,0.756006006006006,0.5018923208399463,0.4937126114027591,0.4984285888693165,0
0.4994997498749374,0.5025025025025024,0.7562562562562563,0.5019987093848649,0.49368296213614243,0.4984285888693165,0
0.49999999999999994,0.5022522522522521,0.7562562562562563,0.5018766241693845,0.49363587212445714,0.4983814988576312,0
0.4989994997498749,0.5032532532532532,0.757007007007007,0.5018609274988227,0.4935905261872787,0.4983675462615763,0
0.4994997498749374,0.5025025025025024,0.7577577577577577,0.5019533634476865,0.4935451802501003,0.49835184959101453,0
0.49924962481240615,0.5022522522522521,0.7580080080080079,0.5018155815616443,0.4937283080733209,0.49841289219875473,0
0.4997498749374687,0.5017517517517517,0.7567567567567567,0.5019080175105081,0.49368296213614243,0.4983814988576312,0
0.5002501250625312,0.5025025025025024,0.7565065065065064,0.5019080175105081,0.49363587212445714,0.49839719552819295,0
0.49999999999999994,0.502002002002002,0.756006006006006,0.5019690601182483,0.4935591328461552,0.49835184959101453,0
0.4994997498749374,0.502002002002002,0.7567567567567567,0.5019376667771247,0.49369691473219735,0.4984285888693165,0
0.4994997498749374,0.5022522522522521,0.7567567567567567,0.5018016289655894,0.49369691473219735,0.4984285888693165,0
0.4994997498749374,0.5025025025025024,0.756006006006006,0.5018609274988227,0.4936062228578405,0.4983814988576312,0
0.5005002501250625,0.502002002002002,0.7577577577577577,0.5020754486631669,0.4935905261872787,0.4983675462615763,0
0.49924962481240615,0.502002002002002,0.7567567567567567,0.5017405863578492,0.4937422606693758,0.4983675462615763,0
0.4989994997498749,0.5022522522522521,0.757007007007007,0.5019080175105081,0.49368296213614243,0.49841289219875473,0
0.49999999999999994,0.5025025025025024,0.7562562562562563,0.5019533634476865,0.4935905261872787,0.49853497741423514,0
0.5002501250625312,0.502002002002002,0.7567567567567567,0.5019080175105081,0.4936201754538954,0.49839719552819295,0
0.4989994997498749,0.5022522522522521,0.7565065065065064,0.5019080175105081,0.4935591328461552,0.49841289219875473,0
0.49924962481240615,0.5025025025025024,0.7562562562562563,0.5019987093848649,0.4936062228578405,0.49841289219875473,0
0.4997498749374687,0.502002002002002,0.7565065065065064,0.50198475678881,0.4937126114027591,0.49839719552819295,0
0.4994997498749374,0.5022522522522521,0.756006006006006,0.5018312782322061,0.4937126114027591,0.4983675462615763,0
0.4989994997498749,0.5025025025025024,0.7562562562562563,0.5018312782322061,0.4936672654655807,0.4983814988576312,0
0.4994997498749374,0.5025025025025024,0.7562562562562563,0.5019219701065629,0.4936062228578405,0.49835184959101453,0
0.49999999999999994,0.5022522522522521,0.7565065065065064,0.5018609274988227,0.4935905261872787,0.49841289219875473,0
0.4997498749374687,0.5022522522522521,0.7565065065065064,0.5019080175105081,0.4936672654655807,0.4983814988576312,0
0.49924962481240615,0.5025025025025024,0.756006006006006,0.5018923208399463,0.49363587212445714,0.49835184959101453,0
0.4994997498749374,0.5022522522522521,0.7567567567567567,0.5019376667771247,0.49363587212445714,0.49833615292045275,0
0.49999999999999994,0.5027527527527527,0.7562562562562563,0.5017859322950277,0.4937283080733209,0.49839719552819295,0
0.4994997498749374,0.5025025025025024,0.7565065065065064,0.5020597519926051,0.4935905261872787,0.49841289219875473,0
0.4989994997498749,0.5025025025025024,0.7565065065065064,0.5017859322950277,0.49368296213614243,0.4984285888693165,0
0.49999999999999994,0.502002002002002,0.7565065065065064,0.5019376667771247,0.4936672654655807,0.49845823813593315,0
0.49999999999999994,0.5022522522522521,0.756006006006006,0.5019533634476865,0.4936062228578405,0.49833615292045275,0
0.4994997498749374,0.5022522522522521,0.7562562562562563,0.5018766241693845,0.49363587212445714,0.49841289219875473,0
0.4994997498749374,0.5022522522522521,0.7557557557557557,0.5019376667771247,0.4936062228578405,0.49844428553987824,0
0.49999999999999994,0.502002002002002,0.7572572572572571,0.5020301027259885,0.4936201754538954,0.4984285888693165,0
0.4989994997498749,0.5017517517517517,0.7557557557557557,0.5017091930167257,0.4937893506810611,0.4983814988576312,0
0.4994997498749374,0.5025025025025024,0.7567567567567567,0.5018766241693845,0.4935905261872787,0.49839719552819295,0
0.4997498749374687,0.5025025025025024,0.756006006006006,0.5018469749027679,0.49368296213614243,0.4983814988576312,0
0.49999999999999994,0.5022522522522521,0.7567567567567567,0.50198475678881,0.4935905261872787,0.4984285888693165,0
0.4994997498749374,0.5022522522522521,0.756006006006006,0.5018609274988227,0.4935905261872787,0.4984285888693165,0
0.4994997498749374,0.5022522522522521,0.7562562562562563,0.5018312782322061,0.49368296213614243,0.4983814988576312,0
0.49999999999999994,0.502002002002002,0.7562562562562563,0.5019219701065629,0.4936515687950189,0.49832220032439783,0
0.49999999999999994,0.5025025025025024,0.756006006006006,0.5019219701065629,0.4936672654655807,0.49835184959101453,0
0.4994997498749374,0.502002002002002,0.7562562562562563,0.5018312782322061,0.49357482951671694,0.4984285888693165,0
0.4994997498749374,0.5022522522522521,0.7567567567567567,0.5020144060554267,0.4935905261872787,0.49839719552819295,0
0.4997498749374687,0.5022522522522521,0.756006006006006,0.5018155815616443,0.49375795733993755,0.4983814988576312,0
0.4997498749374687,0.5025025025025024,0.7562562562562563,0.5019690601182483,0.49363587212445714,0.49833615292045275,0
0.4994997498749374,0.5025025025025024,0.7567567567567567,0.5018923208399463,0.49368296213614243,0.4983065036538361,0
0.4994997498749374,0.5022522522522521,0.756006006006006,0.5019080175105081,0.4936672654655807,0.49839719552819295,0
0.49999999999999994,0.502002002002002,0.7565065065065064,0.5018469749027679,0.4937126114027591,0.4983814988576312,0
0.4997498749374687,0.5025025025025024,0.756006006006006,0.5018016289655894,0.49377365401049933,0.49839719552819295,0
0.4997498749374687,0.502002002002002,0.757007007007007,0.5019376667771247,0.4936062228578405,0.49839719552819295,0
0.49999999999999994,0.5025025025025024,0.7567567567567567,0.5019376667771247,0.4937126114027591,0.4984896314770567,0
0.4994997498749374,0.5022522522522521,0.7562562562562563,0.5018766241693845,0.4937422606693758,0.49841289219875473,0
0.4994997498749374,0.502002002002002,0.7567567567567567,0.5019219701065629,0.4936515687950189,0.4983675462615763,0
0.4997498749374687,0.5022522522522521,0.7565065065065064,0.5019219701065629,0.49369691473219735,0.49835184959101453,0
0.49999999999999994,0.5017517517517517,0.7567567567567567,0.5018923208399463,0.4936515687950189,0.49845823813593315,0
0.49924962481240615,0.5022522522522521,0.7555055055055054,0.5018016289655894,0.49375795733993755,0.49844428553987824,0
0.49924962481240615,0.502002002002002,0.7567567567567567,0.5018155815616443,0.4937422606693758,0.4983814988576312,0
0.4997498749374687,0.5022522522522521,0.757007007007007,0.5019533634476865,0.4935905261872787,0.4984285888693165,0
0.4994997498749374,0.502002002002002,0.7552552552552552,0.5016777996756021,0.493803303277116,0.49839719552819295,0
0.4994997498749374,0.5022522522522521,0.756006006006006,0.5017859322950277,0.4936672654655807,0.49839719552819295,0
0.4997498749374687,0.5025025025025024,0.7565065065065064,0.5018923208399463,0.4935905261872787,0.4983814988576312,0
0.49924962481240615,0.5022522522522521,0.7562562562562563,0.5018923208399463,0.4937422606693758,0.49845823813593315,0
0.4997498749374687,0.5027527527527527,0.756006006006006,0.5019219701065629,0.4936672654655807,0.49851928074367335,0
0.4994997498749374,0.5022522522522521,0.7565065065065064,0.5017545389539041,0.4937126114027591,0.49844428553987824,0
0.4997498749374687,0.5022522522522521,0.757007007007007,0.5018766241693845,0.4936672654655807,0.4983814988576312,0
0.4994997498749374,0.5017517517517517,0.756006006006006,0.5017859322950277,0.4937422606693758,0.4983814988576312,0
0.4997498749374687,0.5022522522522521,0.7565065065065064,0.5018469749027679,0.49369691473219735,0.4983814988576312,0
0.49999999999999994,0.5022522522522521,0.7562562562562563,0.5019533634476865,0.4935591328461552,0.49832220032439783,0
0.4994997498749374,0.5025025025025024,0.757007007007007,0.5019376667771247,0.4936515687950189,0.4983675462615763,0
0.4994997498749374,0.5025025025025024,0.7567567567567567,0.5018923208399463,0.4937422606693758,0.4983814988576312,0
0.4997498749374687,0.5022522522522521,0.7565065065065064,0.5018766241693845,0.49363587212445714,0.49841289219875473,0
0.4997498749374687,0.502002002002002,0.7562562562562563,0.5018923208399463,0.4936515687950189,0.49844428553987824,0
0.4994997498749374,0.5022522522522521,0.7567567567567567,0.5018923208399463,0.49368296213614243,0.49839719552819295,0
0.4994997498749374,0.5022522522522521,0.7562562562562563,0.5018155815616443,0.4937126114027591,0.49841289219875473,0
0.4994997498749374,0.5022522522522521,0.7562562562562563,0.5018923208399463,0.49368296213614243,0.49841289219875473,0
0.49999999999999994,0.5022522522522521,0.7557557557557557,0.5019219701065629,0.4936515687950189,0.49844428553987824,0
0.49924962481240615,0.5022522522522521,0.7567567567567567,0.5019533634476865,0.4935451802501003,0.49845823813593315,0
0.4997498749374687,0.5022522522522521,0.7565065065065064,0.50198475678881,0.49363587212445714,0.4983675462615763,0
0.4997498749374687,0.5022522522522521,0.7562562562562563,0.5018155815616443,0.49369691473219735,0.49841289219875473,0
0.4997498749374687,0.5025025025025024,0.7557557557557557,0.5019533634476865,0.4936672654655807,0.49835184959101453,0
0.49924962481240615,0.5025025025025024,0.7567567567567567,0.5019080175105081,0.4937126114027591,0.49835184959101453,0
0.4997498749374687,0.5025025025025024,0.757007007007007,0.5020301027259885,0.49363587212445714,0.4983814988576312,0
0.5002501250625312,0.5022522522522521,0.7565065065065064,0.5018766241693845,0.4937283080733209,0.49833615292045275,0
0.4989994997498749,0.5025025025025024,0.756006006006006,0.5019080175105081,0.4937422606693758,0.49847393480649493,0
0.49924962481240615,0.5027527527527527,0.756006006006006,0.5019690601182483,0.4935905261872787,0.49844428553987824,0
0.4997498749374687,0.5022522522522521,0.7567567567567567,0.50198475678881,0.4935451802501003,0.49835184959101453,0
0.4997498749374687,0.5022522522522521,0.7562562562562563,0.5018016289655894,0.49375795733993755,0.4983814988576312,0
0.4994997498749374,0.5022522522522521,0.7562562562562563,0.5019219701065629,0.4936062228578405,0.4983065036538361,0
0.4997498749374687,0.5022522522522521,0.756006006006006,0.5019690601182483,0.4936515687950189,0.49839719552819295,0
0.4997498749374687,0.5022522522522521,0.7567567567567567,0.5019376667771247,0.4937283080733209,0.49833615292045275,0
0.4997498749374687,0.5025025025025024,0.756006006006006,0.5019080175105081,0.4937422606693758,0.4983675462615763,0
0.4994997498749374,0.5022522522522521,0.7562562562562563,0.5018766241693845,0.4937283080733209,0.4984285888693165,0
0.4997498749374687,0.5025025025025024,0.7565065065065064,0.5019533634476865,0.4936062228578405,0.4984285888693165,0
0.4994997498749374,0.5025025025025024,0.7565065065065064,0.5018155815616443,0.4936672654655807,0.4983675462615763,0
0.4994997498749374,0.5022522522522521,0.756006006006006,0.5018312782322061,0.4937283080733209,0.49841289219875473,0
0.4997498749374687,0.5022522522522521,0.7557557557557557,0.5018923208399463,0.4936672654655807,0.49839719552819295,0
0.49999999999999994,0.5022522522522521,0.7562562562562563,0.5019219701065629,0.4936515687950189,0.49839719552819295,0
0.4997498749374687,0.5022522522522521,0.7562562562562563,0.5018469749027679,0.4937283080733209,0.49827511031271254,0
0.49924962481240615,0.5025025025025024,0.7565065065065064,0.5019080175105081,0.49369691473219735,0.4983814988576312,0
0.4997498749374687,0.5025025025025024,0.756006006006006,0.5019533634476865,0.49368296213614243,0.4983814988576312,0
0.5002501250625312,0.5022522522522521,0.7567567567567567,0.5019219701065629,0.4936201754538954,0.4983814988576312,0
0.4994997498749374,0.5025025025025024,0.7562562562562563,0.5019080175105081,0.49363587212445714,0.4983814988576312,0
0.4994997498749374,0.5025025025025024,0.7567567567567567,0.5019219701065629,0.4937126114027591,0.49833615292045275,0
0.49999999999999994,0.5022522522522521,0.7562562562562563,0.5019219701065629,0.49369691473219735,0.49833615292045275,0
0.4997498749374687,0.5022522522522521,0.7565065065065064,0.5018766241693845,0.4937422606693758,0.49841289219875473,0
0.5002501250625312,0.5022522522522521,0.7562562562562563,0.5018312782322061,0.4937126114027591,0.4983675462615763,0
0.4989994997498749,0.5025025025025024,0.7562562562562563,0.5018766241693845,0.49368296213614243,0.4985035840731116,0
0.49924962481240615,0.5025025025025024,0.7557557557557557,0.5018016289655894,0.49368296213614243,0.4983675462615763,0
0.49999999999999994,0.5022522522522521,0.7565065065065064,0.5018923208399463,0.4936672654655807,0.49844428553987824,0
0.4997498749374687,0.502002002002002,0.7562562562562563,0.5019690601182483,0.49363587212445714,0.49845823813593315,0
0.4987493746873436,0.5025025025025024,0.7567567567567567,0.5019219701065629,0.49368296213614243,0.4983814988576312,0
0.4997498749374687,0.5022522522522521,0.7567567567567567,0.5020457993965503,0.49363587212445714,0.49833615292045275,0
0.4994997498749374,0.5017517517517517,0.756006006006006,0.5017545389539041,0.493803303277116,0.49841289219875473,0
0.4994997498749374,0.5022522522522521,0.7567567567567567,0.5018923208399463,0.49369691473219735,0.4983675462615763,0
0.4994997498749374,0.5027527527527527,0.7567567567567567,0.5019533634476865,0.4936201754538954,0.49841289219875473,0
0.4997498749374687,0.5025025025025024,0.7565065065065064,0.5019219701065629,0.4936515687950189,0.4983675462615763,0
0.49999999999999994,0.5022522522522521,0.7565065065065064,0.5019533634476865,0.4937283080733209,0.49835184959101453,0
0.49999999999999994,0.502002002002002,0.7557557557557557,0.5018312782322061,0.4937422606693758,0.49839719552819295,0
0.4997498749374687,0.5027527527527527,0.7572572572572571,0.5020457993965503,0.4936201754538954,0.49839719552819295,0
0.49999999999999994,0.5022522522522521,0.7572572572572571,0.5019690601182483,0.4936515687950189,0.49841289219875473,0
0.5002501250625312,0.502002002002002,0.755005005005005,0.5018312782322061,0.4936062228578405,0.49835184959101453,0
0.4994997498749374,0.5022522522522521,0.7567567567567567,0.50198475678881,0.4935905261872787,0.4983675462615763,0
0.49924962481240615,0.5022522522522521,0.7565065065065064,0.5018609274988227,0.49369691473219735,0.4983814988576312,0
0.4997498749374687,0.5025025025025024,0.7565065065065064,0.5018609274988227,0.4937283080733209,0.4983675462615763,0
0.49999999999999994,0.5022522522522521,0.756006006006006,0.5019080175105081,0.4937126114027591,0.4983814988576312,0
0.4994997498749374,0.5025025025025024,0.7562562562562563,0.5019080175105081,0.4937126114027591,0.4983675462615763,0
0.49924962481240615,0.5022522522522521,0.756006006006006,0.5018766241693845,0.4937283080733209,0.49839719552819295,0
0.4997498749374687,0.5025025025025024,0.7567567567567567,0.5019690601182483,0.4936515687950189,0.49839719552819295,0
0.49999999999999994,0.5022522522522521,0.7565065065065064,0.5018609274988227,0.4936201754538954,0.49833615292045275,0
0.4994997498749374,0.5022522522522521,0.7562562562562563,0.5019080175105081,0.4936515687950189,0.4983814988576312,0
0.4994997498749374,0.5027527527527527,0.7565065065065064,0.5018469749027679,0.4936672654655807,0.49833615292045275,0
0.49999999999999994,0.5022522522522521,0.756006006006006,0.5018312782322061,0.4936672654655807,0.49833615292045275,0
0.49999999999999994,0.5022522522522521,0.7565065065065064,0.5019690601182483,0.4937126114027591,0.49847393480649493,0
0.49924962481240615,0.5025025025025024,0.7565065065065064,0.5018469749027679,0.4936672654655807,0.49841289219875473,0
0.49924962481240615,0.5027527527527527,0.7565065065065064,0.5019080175105081,0.4936062228578405,0.49833615292045275,0
0.4997498749374687,0.5025025025025024,0.756006006006006,0.5018766241693845,0.4937126114027591,0.49839719552819295,0
0.49999999999999994,0.5025025025025024,0.756006006006006,0.5019080175105081,0.4936515687950189,0.49845823813593315,0
0.49924962481240615,0.5025025025025024,0.7565065065065064,0.5018312782322061,0.4937283080733209,0.4984285888693165,0
0.49924962481240615,0.5027527527527527,0.7565065065065064,0.5019080175105081,0.4937283080733209,0.49835184959101453,0
0.49999999999999994,0.5025025025025024,0.7562562562562563,0.5018923208399463,0.4936062228578405,0.4984896314770567,0
0.4997498749374687,0.5022522522522521,0.7565065065065064,0.5019533634476865,0.4936201754538954,0.49841289219875473,0
0.49924962481240615,0.5022522522522521,0.756006006006006,0.5018923208399463,0.49363587212445714,0.49835184959101453,0
0.49924962481240615,0.502002002002002,0.756006006006006,0.50198475678881,0.4937422606693758,0.4983814988576312,0
0.4994997498749374,0.5025025025025024,0.756006006006006,0.5018923208399463,0.4936201754538954,0.49844428553987824,0
0.4997498749374687,0.5025025025025024,0.7565065065065064,0.5019080175105081,0.4936672654655807,0.4983814988576312,0
0.4997498749374687,0.5025025025025024,0.7562562562562563,0.5019690601182483,0.4936515687950189,0.49835184959101453,0
0.4997498749374687,0.5027527527527527,0.7562562562562563,0.5018923208399463,0.49369691473219735,0.4984285888693165,0
0.4997498749374687,0.5025025025025024,0.7562562562562563,0.5019080175105081,0.4936062228578405,0.49835184959101453,0
0.49999999999999994,0.5022522522522521,0.7562562562562563,0.5018923208399463,0.4936672654655807,0.4984285888693165,0
0.4994997498749374,0.5025025025025024,0.7562562562562563,0.5018469749027679,0.4937126114027591,0.4983675462615763,0
0.4997498749374687,0.5022522522522521,0.7562562562562563,0.5018469749027679,0.4936672654655807,0.49839719552819295,0
0.49999999999999994,0.5022522522522521,0.7567567567567567,0.5018766241693845,0.4937126114027591,0.4983675462615763,0
0.4994997498749374,0.5025025025025024,0.7557557557557557,0.5018923208399463,0.4937422606693758,0.49844428553987824,0
0.4997498749374687,0.5025025025025024,0.7562562562562563,0.5019533634476865,0.4936515687950189,0.49835184959101453,0
0.4997498749374687,0.5022522522522521,0.7562562562562563,0.5019533634476865,0.49369691473219735,0.4983675462615763,0
0.4997498749374687,0.5022522522522521,0.7562562562562563,0.5019533634476865,0.49369691473219735,0.4983814988576312,0
0.4994997498749374,0.5025025025025024,0.7562562562562563,0.5018923208399463,0.4936201754538954,0.49845823813593315,0
0.4997498749374687,0.5022522522522521,0.7562562562562563,0.5019219701065629,0.49357482951671694,0.49841289219875473,0
0.49999999999999994,0.5025025025025024,0.756006006006006,0.5019376667771247,0.49357482951671694,0.4982594136421508,0
0.4997498749374687,0.5022522522522521,0.757007007007007,0.50198475678881,0.4936201754538954,0.4983675462615763,0
0.4994997498749374,0.502002002002002,0.7562562562562563,0.5017859322950277,0.49377365401049933,0.4984896314770567,0
0.4994997498749374,0.5027527527527527,0.7565065065065064,0.5019376667771247,0.4936062228578405,0.4983675462615763,0
0.4994997498749374,0.5025025025025024,0.756006006006006,0.5018609274988227,0.49368296213614243,0.49841289219875473,0
0.4994997498749374,0.5022522522522521,0.7565065065065064,0.5017859322950277,0.4935905261872787,0.4984285888693165,0
0.49999999999999994,0.5027527527527527,0.7565065065065064,0.5018923208399463,0.4937422606693758,0.49841289219875473,0
0.4994997498749374,0.5025025025025024,0.756006006006006,0.5020144060554267,0.4936672654655807,0.4984896314770567,0
0.4994997498749374,0.5025025025025024,0.7567567567567567,0.5019080175105081,0.4937893506810611,0.4983814988576312,0
0.4997498749374687,0.5022522522522521,0.7565065065065064,0.5018923208399463,0.49363587212445714,0.4983814988576312,0
0.49999999999999994,0.5027527527527527,0.7562562562562563,0.5019533634476865,0.4935905261872787,0.4984285888693165,0
0.4994997498749374,0.5027527527527527,0.7562562562562563,0.5019080175105081,0.49368296213614243,0.4983814988576312,0
0.4994997498749374,0.5025025025025024,0.7562562562562563,0.5018469749027679,0.4936062228578405,0.4983675462615763,0
0.4994997498749374,0.5025025025025024,0.7565065065065064,0.5019376667771247,0.49369691473219735,0.4983814988576312,0
0.4997498749374687,0.5025025025025024,0.7562562562562563,0.5017859322950277,0.49369691473219735,0.4984285888693165,0
0.49999999999999994,0.5025025025025024,0.7562562562562563,0.5019219701065629,0.4936672654655807,0.4983814988576312,0
0.4994997498749374,0.5027527527527527,0.7565065065065064,0.5019219701065629,0.4937126114027591,0.4983065036538361,0
0.4997498749374687,0.5025025025025024,0.7565065065065064,0.5019219701065629,0.4936672654655807,0.49839719552819295,0
0.4997498749374687,0.5025025025025024,0.7565065065065064,0.5018766241693845,0.4937126114027591,0.49839719552819295,0
0.4994997498749374,0.5025025025025024,0.7565065065065064,0.5018923208399463,0.49369691473219735,0.49847393480649493,0
0.4994997498749374,0.5025025025025024,0.756006006006006,0.5018766241693845,0.4936672654655807,0.49835184959101453,0
0.4994997498749374,0.5025025025025024,0.7562562562562563,0.5018766241693845,0.4936672654655807,0.49835184959101453,0
0.49999999999999994,0.5025025025025024,0.7562562562562563,0.5019690601182483,0.4937283080733209,0.49841289219875473,0
0.49999999999999994,0.5022522522522521,0.756006006006006,0.5018766241693845,0.49363587212445714,0.4984285888693165,0
0.49924962481240615,0.5025025025025024,0.7562562562562563,0.5018469749027679,0.4936201754538954,0.49839719552819295,0
0.4994997498749374,0.5025025025025024,0.7565065065065064,0.5019080175105081,0.4936515687950189,0.49841289219875473,0
0.49999999999999994,0.5025025025025024,0.7565065065065064,0.5019690601182483,0.4936672654655807,0.49841289219875473,0
0.49999999999999994,0.5025025025025024,0.7565065065065064,0.5018609274988227,0.49368296213614243,0.4984285888693165,0
0.49924962481240615,0.5025025025025024,0.7565065065065064,0.5018312782322061,0.4936515687950189,0.49844428553987824,0
0.4997498749374687,0.5025025025025024,0.7562562562562563,0.5018766241693845,0.4936515687950189,0.4984285888693165,0
0.4994997498749374,0.5025025025025024,0.7562562562562563,0.5019219701065629,0.4936515687950189,0.49844428553987824,0
0.49999999999999994,0.5025025025025024,0.756006006006006,0.5018155815616443,0.49368296213614243,0.4983675462615763,0
0.4994997498749374,0.5025025025025024,0.7567567567567567,0.5019533634476865,0.4936515687950189,0.49841289219875473,0
0.4994997498749374,0.5027527527527527,0.756006006006006,0.5019219701065629,0.4936515687950189,0.49841289219875473,0
0.4997498749374687,0.5025025025025024,0.7567567567567567,0.5019080175105081,0.4937126114027591,0.4983814988576312,0
0.4997498749374687,0.5022522522522521,0.7562562562562563,0.50198475678881,0.49363587212445714,0.49841289219875473,0
0.4989994997498749,0.5022522522522521,0.756006006006006,0.5018016289655894,0.49377365401049933,0.4983675462615763,0
0.4997498749374687,0.5022522522522521,0.7565065065065064,0.5019376667771247,0.4936201754538954,0.49847393480649493,0
0.49999999999999994,0.5027527527527527,0.7565065065065064,0.5019219701065629,0.49357482951671694,0.49839719552819295,0
0.4997498749374687,0.5022522522522521,0.7562562562562563,0.5018923208399463,0.49363587212445714,0.49841289219875473,0
0.4994997498749374,0.5022522522522521,0.7567567567567567,0.5019080175105081,0.4936515687950189,0.49839719552819295,0
0.4997498749374687,0.5025025025025024,0.7562562562562563,0.5018469749027679,0.4936515687950189,0.49844428553987824,0
0.4997498749374687,0.5025025025025024,0.7565065065065064,0.5018923208399463,0.4937283080733209,0.4983814988576312,0
0.4994997498749374,0.5027527527527527,0.7562562562562563,0.5018469749027679,0.49368296213614243,0.49839719552819295,0
0.49924962481240615,0.5025025025025024,0.756006006006006,0.5018469749027679,0.49369691473219735,0.4984896314770567,0
0.4997498749374687,0.5025025025025024,0.7565065065065064,0.5019080175105081,0.4936672654655807,0.4983814988576312,0
0.4997498749374687,0.5025025025025024,0.7565065065065064,0.5018923208399463,0.4936672654655807,0.49844428553987824,0
0.4997498749374687,0.5025025025025024,0.756006006006006,0.5018923208399463,0.4937126114027591,0.49841289219875473,0
0.4997498749374687,0.5025025025025024,0.756006006006006,0.5019219701065629,0.4936672654655807,0.49835184959101453,0
0.4994997498749374,0.5025025025025024,0.756006006006006,0.5018609274988227,0.4937126114027591,0.49839719552819295,0
0.4997498749374687,0.5022522522522521,0.7565065065065064,0.5019376667771247,0.4936201754538954,0.49841289219875473,0
0.4994997498749374,0.5025025025025024,0.7562562562562563,0.5019080175105081,0.4936672654655807,0.4983675462615763,0
0.4997498749374687,0.5022522522522521,0.7562562562562563,0.5018155815616443,0.4936672654655807,0.4982908069832743,0
0.4997498749374687,0.5025025025025024,0.7565065065065064,0.5019080175105081,0.49363587212445714,0.49844428553987824,0
0.4994997498749374,0.5022522522522521,0.7562562562562563,0.5018312782322061,0.49377365401049933,0.4983675462615763,0
0.49924962481240615,0.5025025025025024,0.7567567567567567,0.5018923208399463,0.4936201754538954,0.49835184959101453,0
0.4997498749374687,0.5025025025025024,0.756006006006006,0.5018923208399463,0.4936515687950189,0.49839719552819295,0
0.4997498749374687,0.5025025025025024,0.7565065065065064,0.5019080175105081,0.4937126114027591,0.49844428553987824,0
0.4997498749374687,0.5025025025025024,0.7565065065065064,0.5019219701065629,0.49375795733993755,0.4983675462615763,0
0.4997498749374687,0.5025025025025024,0.7562562562562563,0.5018469749027679,0.4937126114027591,0.4984896314770567,0
0.4997498749374687,0.5025025025025024,0.7562562562562563,0.5018766241693845,0.49368296213614243,0.4984285888693165,0
0.49999999999999994,0.5025025025025024,0.7567567567567567,0.5019080175105081,0.49357482951671694,0.49832220032439783,0
0.4997498749374687,0.5025025025025024,0.7565065065065064,0.5019219701065629,0.4936515687950189,0.4983814988576312,0
0.4994997498749374,0.5025025025025024,0.7562562562562563,0.5018469749027679,0.4937283080733209,0.49833615292045275,0
0.4997498749374687,0.5025025025025024,0.756006006006006,0.5018923208399463,0.49368296213614243,0.49833615292045275,0
0.49999999999999994,0.5025025025025024,0.756006006006006,0.5018766241693845,0.49363587212445714,0.49845823813593315,0
0.4994997498749374,0.5025025025025024,0.7565065065065064,0.5018609274988227,0.49368296213614243,0.49839719552819295,0
0.4997498749374687,0.5025025025025024,0.7562562562562563,0.5019219701065629,0.49377365401049933,0.4983675462615763,0
0.4997498749374687,0.5022522522522521,0.7562562562562563,0.5018312782322061,0.49369691473219735,0.4983675462615763,0
0.49999999999999994,0.5025025025025024,0.756006006006006,0.5018155815616443,0.4937283080733209,0.49845823813593315,0
0.4997498749374687,0.5022522522522521,0.7567567567567567,0.5018923208399463,0.4936672654655807,0.4983675462615763,0
0.4994997498749374,0.5025025025025024,0.7562562562562563,0.5018469749027679,0.4937126114027591,0.49845823813593315,0
0.4997498749374687,0.5022522522522521,0.7565065065065064,0.5019690601182483,0.4936515687950189,0.49835184959101453,0
0.4994997498749374,0.5025025025025024,0.7565065065065064,0.5019219701065629,0.4936672654655807,0.49835184959101453,0
0.4997498749374687,0.5027527527527527,0.7567567567567567,0.5019376667771247,0.49368296213614243,0.49845823813593315,0
0.4997498749374687,0.5025025025025024,0.7562562562562563,0.5018766241693845,0.49369691473219735,0.49844428553987824,0
0.4994997498749374,0.5025025025025024,0.756006006006006,0.5018609274988227,0.4936515687950189,0.4984285888693165,0
0.49924962481240615,0.5025025025025024,0.7562562562562563,0.5018923208399463,0.49368296213614243,0.49835184959101453,0
0.4997498749374687,0.5022522522522521,0.7567567567567567,0.5018923208399463,0.4936515687950189,0.4984285888693165,0
0.4997498749374687,0.5022522522522521,0.7562562562562563,0.5018155815616443,0.4936515687950189,0.49839719552819295,0
0.4994997498749374,0.5025025025025024,0.756006006006006,0.5018155815616443,0.4937283080733209,0.4983814988576312,0
0.4994997498749374,0.5025025025025024,0.7562562562562563,0.50198475678881,0.4936515687950189,0.4983814988576312,0
0.49999999999999994,0.5022522522522521,0.7565065065065064,0.5019533634476865,0.4936515687950189,0.49841289219875473,0
0.4997498749374687,0.5025025025025024,0.7565065065065064,0.5019219701065629,0.4936672654655807,0.49844428553987824,0
0.4997498749374687,0.5025025025025024,0.7562562562562563,0.5018469749027679,0.4936515687950189,0.4984896314770567,0
0.4997498749374687,0.5025025025025024,0.7562562562562563,0.5018766241693845,0.49368296213614243,0.4984896314770567,0
0.4997498749374687,0.5025025025025024,0.756006006006006,0.5018766241693845,0.4936201754538954,0.4983814988576312,0
0.4997498749374687,0.5025025025025024,0.7562562562562563,0.5018609274988227,0.4936515687950189,0.4983814988576312,0
0.4997498749374687,0.5025025025025024,0.7562562562562563,0.5018312782322061,0.49363587212445714,0.4983814988576312,0
0.4997498749374687,0.5027527527527527,0.7565065065065064,0.5019080175105081,0.4936515687950189,0.4982908069832743,0
0.4994997498749374,0.5025025025025024,0.7565065065065064,0.5018609274988227,0.49368296213614243,0.4983814988576312,0
0.4994997498749374,0.5027527527527527,0.7565065065065064,0.5018923208399463,0.49368296213614243,0.4983675462615763,0
0.49999999999999994,0.5022522522522521,0.7557557557557557,0.5019080175105081,0.4936515687950189,0.49833615292045275,0
0.5002501250625312,0.5025025025025024,0.7562562562562563,0.50198475678881,0.4936515687950189,0.4983814988576312,0
0.4997498749374687,0.5025025025025024,0.7562562562562563,0.5019533634476865,0.4936672654655807,0.4982908069832743,0
0.49924962481240615,0.5025025025025024,0.7562562562562563,0.5018766241693845,0.4937283080733209,0.49832220032439783,0
0.4997498749374687,0.5025025025025024,0.756006006006006,0.5018766241693845,0.49363587212445714,0.49833615292045275,0
0.49999999999999994,0.5022522522522521,0.7565065065065064,0.5018766241693845,0.4936062228578405,0.4983675462615763,0
0.4994997498749374,0.5025025025025024,0.7562562562562563,0.5018469749027679,0.4935591328461552,0.4984285888693165,0
0.49924962481240615,0.5027527527527527,0.7562562562562563,0.5018155815616443,0.49363587212445714,0.49835184959101453,0
0.49999999999999994,0.5025025025025024,0.756006006006006,0.5018469749027679,0.49369691473219735,0.4984896314770567,0
0.4997498749374687,0.5025025025025024,0.7557557557557557,0.5018766241693845,0.49363587212445714,0.4983675462615763,0
0.4994997498749374,0.5025025025025024,0.7562562562562563,0.5019219701065629,0.4936672654655807,0.49841289219875473,0
0.4994997498749374,0.5025025025025024,0.7565065065065064,0.5019376667771247,0.4937422606693758,0.4983814988576312,0
0.49999999999999994,0.5025025025025024,0.7557557557557557,0.5018312782322061,0.4936672654655807,0.4983675462615763,0
0.4997498749374687,0.5025025025025024,0.7562562562562563,0.5019376667771247,0.4936062228578405,0.4984285888693165,0
0.4997498749374687,0.5025025025025024,0.7565065065065064,0.5019690601182483,0.4936062228578405,0.4983814988576312,0
0.4997498749374687,0.5027527527527527,0.7565065065065064,0.5018312782322061,0.4936515687950189,0.4983814988576312,0
0.4997498749374687,0.5025025025025024,0.7565065065065064,0.5019080175105081,0.49369691473219735,0.4983065036538361,0
0.4997498749374687,0.5022522522522521,0.756006006006006,0.5018766241693845,0.4936672654655807,0.4983814988576312,0
0.49999999999999994,0.5025025025025024,0.7567567567567567,0.5019690601182483,0.49357482951671694,0.4983675462615763,0
0.4997498749374687,0.5025025025025024,0.756006006006006,0.5018923208399463,0.4937283080733209,0.49839719552819295,0
0.4997498749374687,0.5025025025025024,0.7562562562562563,0.5019376667771247,0.49369691473219735,0.49835184959101453,0
0.4997498749374687,0.5025025025025024,0.7562562562562563,0.5018312782322061,0.4936515687950189,0.4983814988576312,0
0.4997498749374687,0.5025025025025024,0.7565065065065064,0.5018766241693845,0.49368296213614243,0.49833615292045275,0
0.49999999999999994,0.5025025025025024,0.7565065065065064,0.5018609274988227,0.4936672654655807,0.4983814988576312,0
0.49999999999999994,0.5027527527527527,0.7557557557557557,0.5018155815616443,0.49377365401049933,0.49833615292045275,0
0.49999999999999994,0.5022522522522521,0.7562562562562563,0.5019080175105081,0.4937126114027591,0.49835184959101453,0
0.49924962481240615,0.5025025025025024,0.7567567567567567,0.5019080175105081,0.49369691473219735,0.49841289219875473,0
0.4994997498749374,0.5027527527527527,0.7565065065065064,0.5018469749027679,0.4936201754538954,0.4983814988576312,0
0.49999999999999994,0.5025025025025024,0.756006006006006,0.5019376667771247,0.4936672654655807,0.49839719552819295,0
0.49999999999999994,0.5025025025025024,0.7565065065065064,0.5019219701065629,0.4935905261872787,0.4983675462615763,0
0.4994997498749374,0.5027527527527527,0.7565065065065064,0.5018469749027679,0.49369691473219735,0.4983065036538361,0
0.49999999999999994,0.5025025025025024,0.7565065065065064,0.5018923208399463,0.49369691473219735,0.49832220032439783,0
0.49999999999999994,0.5025025025025024,0.7562562562562563,0.5019080175105081,0.4936515687950189,0.4983814988576312,0
0.4997498749374687,0.5025025025025024,0.7562562562562563,0.5018469749027679,0.49375795733993755,0.49839719552819295,0
0.4997498749374687,0.5027527527527527,0.7562562562562563,0.5018312782322061,0.4936062228578405,0.4983675462615763,0
0.49999999999999994,0.5025025025025024,0.7567567567567567,0.5018766241693845,0.4936515687950189,0.49833615292045275,0
0.5002501250625312,0.5027527527527527,0.756006006006006,0.5019080175105081,0.49368296213614243,0.49839719552819295,0
0.49924962481240615,0.5027527527527527,0.7565065065065064,0.5018923208399463,0.49369691473219735,0.4983675462615763,0
0.49924962481240615,0.5027527527527527,0.756006006006006,0.5019080175105081,0.4936515687950189,0.4983675462615763,0
0.5002501250625312,0.5022522522522521,0.7562562562562563,0.5018923208399463,0.4936672654655807,0.49839719552819295,0
0.49999999999999994,0.5025025025025024,0.7565065065065064,0.5018469749027679,0.4936201754538954,0.49839719552819295,0
0.4997498749374687,0.5025025025025024,0.7562562562562563,0.5019080175105081,0.49363587212445714,0.49832220032439783,0
0.49999999999999994,0.5025025025025024,0.7562562562562563,0.5019219701065629,0.49363587212445714,0.4983814988576312,0
0.4997498749374687,0.5025025025025024,0.7562562562562563,0.5019219701065629,0.4937126114027591,0.4984285888693165,0
0.49999999999999994,0.5022522522522521,0.7562562562562563,0.5018609274988227,0.49363587212445714,0.4983814988576312,0
0.4994997498749374,0.5027527527527527,0.7565065065065064,0.5019690601182483,0.49363587212445714,0.49839719552819295,0
0.4997498749374687,0.5027527527527527,0.7562562562562563,0.5018923208399463,0.4937283080733209,0.49833615292045275,0
0.4997498749374687,0.5025025025025024,0.7562562562562563,0.5019080175105081,0.4936672654655807,0.49833615292045275,0
0.4997498749374687,0.5025025025025024,0.7562562562562563,0.5019080175105081,0.49363587212445714,0.4983065036538361,0
0.4997498749374687,0.5025025025025024,0.756006006006006,0.5019219701065629,0.4936201754538954,0.4983065036538361,0
0.4997498749374687,0.5025025025025024,0.7565065065065064,0.5019376667771247,0.4936515687950189,0.4983675462615763,0
0.49999999999999994,0.5025025025025024,0.7562562562562563,0.5018923208399463,0.49363587212445714,0.49835184959101453,0
0.4997498749374687,0.5025025025025024,0.756006006006006,0.5018609274988227,0.49368296213614243,0.49835184959101453,0
0.4994997498749374,0.5025025025025024,0.7562562562562563,0.5018469749027679,0.4936672654655807,0.49833615292045275,0
0.4997498749374687,0.5027527527527527,0.7562562562562563,0.5018923208399463,0.4937283080733209,0.4983814988576312,0
0.49999999999999994,0.5025025025025024,0.7565065065065064,0.5018609274988227,0.4936515687950189,0.4983814988576312,0
0.49999999999999994,0.5025025025025024,0.7565065065065064,0.5018766241693845,0.4936201754538954,0.4984285888693165,0
0.4997498749374687,0.5025025025025024,0.7562562562562563,0.5019080175105081,0.49369691473219735,0.49839719552819295,0
0.4997498749374687,0.5025025025025024,0.7562562562562563,0.5018923208399463,0.49363587212445714,0.49841289219875473,0
0.49999999999999994,0.5027527527527527,0.7562562562562563,0.5019376667771247,0.4937126114027591,0.49835184959101453,0
0.49999999999999994,0.5027527527527527,0.7565065065065064,0.5018923208399463,0.4935591328461552,0.49832220032439783,0
0.4997498749374687,0.5025025025025024,0.7562562562562563,0.5018766241693845,0.49368296213614243,0.49839719552819295,0
0.4994997498749374,0.5027527527527527,0.7565065065065064,0.5018923208399463,0.4936062228578405,0.49832220032439783,0
0.49999999999999994,0.5025025025025024,0.756006006006006,0.5019080175105081,0.4936515687950189,0.4983814988576312,0
0.4997498749374687,0.5025025025025024,0.7565065065065064,0.5019219701065629,0.49369691473219735,0.49841289219875473,0
0.4997498749374687,0.5027527527527527,0.7562562562562563,0.5018923208399463,0.4936672654655807,0.4983675462615763,0
0.4997498749374687,0.5025025025025024,0.7567567567567567,0.5019080175105081,0.49369691473219735,0.4983814988576312,0
0.49924962481240615,0.5025025025025024,0.756006006006006,0.5019533634476865,0.4937126114027591,0.4984285888693165,0
0.4997498749374687,0.5022522522522521,0.7565065065065064,0.5018923208399463,0.4935905261872787,0.49832220032439783,0
0.4997498749374687,0.5025025025025024,0.7562562562562563,0.5018016289655894,0.49368296213614243,0.49839719552819295,0
0.49999999999999994,0.5027527527527527,0.7565065065065064,0.5018155815616443,0.4936515687950189,0.49845823813593315,0
0.4997498749374687,0.5025025025025024,0.7565065065065064,0.5018923208399463,0.49368296213614243,0.49835184959101453,0
0.4997498749374687,0.5025025025025024,0.7565065065065064,0.5019219701065629,0.4935905261872787,0.4983675462615763,0
0.4994997498749374,0.5025025025025024,0.7565065065065064,0.5018155815616443,0.49369691473219735,0.49839719552819295,0
0.4997498749374687,0.5027527527527527,0.7565065065065064,0.5018923208399463,0.49368296213614243,0.49841289219875473,0
0.4997498749374687,0.5027527527527527,0.7565065065065064,0.5018766241693845,0.4936515687950189,0.49835184959101453,0
0.4997498749374687,0.5027527527527527,0.7565065065065064,0.5019376667771247,0.4935905261872787,0.4984285888693165,0
0.49999999999999994,0.5025025025025024,0.7565065065065064,0.5019219701065629,0.49357482951671694,0.4983814988576312,0
0.4997498749374687,0.5025025025025024,0.7562562562562563,0.5019219701065629,0.4936672654655807,0.49832220032439783,0
0.4997498749374687,0.5025025025025024,0.7562562562562563,0.5019080175105081,0.4936515687950189,0.49839719552819295,0
0.4997498749374687,0.5025025025025024,0.7565065065065064,0.5019533634476865,0.4936672654655807,0.4983814988576312,0
0.4997498749374687,0.5025025025025024,0.7562562562562563,0.5019219701065629,0.4937126114027591,0.49833615292045275,0
0.4997498749374687,0.5027527527527527,0.7565065065065064,0.5018766241693845,0.4937126114027591,0.49839719552819295,0
0.4997498749374687,0.5025025025025024,0.7565065065065064,0.5018469749027679,0.4936672654655807,0.4983814988576312,0
0.4994997498749374,0.5025025025025024,0.7565065065065064,0.5018609274988227,0.49368296213614243,0.49839719552819295,0
0.4994997498749374,0.5027527527527527,0.7567567567567567,0.5019533634476865,0.49368296213614243,0.4983814988576312,0
0.49999999999999994,0.5025025025025024,0.756006006006006,0.5017859322950277,0.4936672654655807,0.49835184959101453,0
0.4997498749374687,0.5025025025025024,0.7562562562562563,0.5019533634476865,0.49363587212445714,0.4983814988576312,0
0.4997498749374687,0.5025025025025024,0.7565065065065064,0.5018312782322061,0.49369691473219735,0.49841289219875473,0
0.4997498749374687,0.5027527527527527,0.7567567567567567,0.5018766241693845,0.49368296213614243,0.49833615292045275,0
0.4997498749374687,0.5025025025025024,0.7565065065065064,0.5019376667771247,0.49368296213614243,0.49841289219875473,0
0.4997498749374687,0.5025025025025024,0.7565065065065064,0.5018923208399463,0.4937126114027591,0.49841289219875473,0
0.4997498749374687,0.5025025025025024,0.7565065065065064,0.5019533634476865,0.49363587212445714,0.49833615292045275,0
0.4997498749374687,0.5025025025025024,0.7565065065065064,0.5018766241693845,0.4935451802501003,0.4983814988576312,0
0.4997498749374687,0.5025025025025024,0.7562562562562563,0.5017702356244659,0.4937283080733209,0.49832220032439783,0
0.4994997498749374,0.5025025025025024,0.7565065065065064,0.5018016289655894,0.49363587212445714,0.4982908069832743,0
0.49999999999999994,0.5025025025025024,0.7567567567567567,0.5019080175105081,0.4936062228578405,0.49833615292045275,0
0.49999999999999994,0.5027527527527527,0.7565065065065064,0.5017702356244659,0.49369691473219735,0.49841289219875473,0
0.4997498749374687,0.5025025025025024,0.7565065065065064,0.5018609274988227,0.49363587212445714,0.4983814988576312,0
0.4997498749374687,0.5027527527527527,0.7562562562562563,0.5019219701065629,0.4936062228578405,0.49835184959101453,0
0.4997498749374687,0.5027527527527527,0.7565065065065064,0.5018609274988227,0.4935905261872787,0.49835184959101453,0
0.49999999999999994,0.5025025025025024,0.7567567567567567,0.5018155815616443,0.4937283080733209,0.49833615292045275,0
0.49999999999999994,0.5025025025025024,0.7565065065065064,0.5018766241693845,0.49368296213614243,0.49841289219875473,0
0.4997498749374687,0.5027527527527527,0.756006006006006,0.5018155815616443,0.4936515687950189,0.49835184959101453,0
0.49999999999999994,0.5025025025025024,0.7567567567567567,0.5019533634476865,0.49363587212445714,0.49833615292045275,0
0.49999999999999994,0.5025025025025024,0.7562562562562563,0.5018923208399463,0.49369691473219735,0.49841289219875473,0
0.4997498749374687,0.5027527527527527,0.757007007007007,0.5018469749027679,0.4937422606693758,0.49833615292045275,0
0.49999999999999994,0.5025025025025024,0.756006006006006,0.5018609274988227,0.4936201754538954,0.4985035840731116,0
0.49999999999999994,0.5025025025025024,0.7562562562562563,0.5018766241693845,0.4936672654655807,0.49841289219875473,0
0.4997498749374687,0.5025025025025024,0.7562562562562563,0.5018766241693845,0.4936062228578405,0.49845823813593315,0
0.4994997498749374,0.5025025025025024,0.7562562562562563,0.5018312782322061,0.4937126114027591,0.4983814988576312,0
0.4997498749374687,0.5027527527527527,0.7567567567567567,0.5018923208399463,0.49369691473219735,0.4984285888693165,0
0.4997498749374687,0.5027527527527527,0.7567567567567567,0.5017859322950277,0.4936515687950189,0.49833615292045275,0
0.49999999999999994,0.5025025025025024,0.7567567567567567,0.5018609274988227,0.49369691473219735,0.49839719552819295,0
0.4997498749374687,0.5025025025025024,0.7565065065065064,0.5018312782322061,0.4936672654655807,0.49835184959101453,0
0.49999999999999994,0.5025025025025024,0.756006006006006,0.5019219701065629,0.4936515687950189,0.4983814988576312,0
0.4997498749374687,0.5025025025025024,0.7565065065065064,0.5018766241693845,0.4936672654655807,0.4983675462615763,0
0.4997498749374687,0.5025025025025024,0.7565065065065064,0.5019376667771247,0.49363587212445714,0.4984285888693165,0
0.4997498749374687,0.5025025025025024,0.7562562562562563,0.5018016289655894,0.4936672654655807,0.4983675462615763,0
0.4997498749374687,0.5025025025025024,0.7562562562562563,0.5019080175105081,0.49363587212445714,0.49844428553987824,0
0.49999999999999994,0.5025025025025024,0.7562562562562563,0.5018923208399463,0.4935905261872787,0.4983065036538361,0
0.49999999999999994,0.5025025025025024,0.7567567567567567,0.5018766241693845,0.49363587212445714,0.4983675462615763,0
0.4997498749374687,0.5027527527527527,0.7562562562562563,0.5019219701065629,0.4936672654655807,0.4983814988576312,0
0.4997498749374687,0.5027527527527527,0.7562562562562563,0.5019533634476865,0.49363587212445714,0.4983675462615763,0
0.4997498749374687,0.5025025025025024,0.7562562562562563,0.5018609274988227,0.4936201754538954,0.49844428553987824,0
0.49999999999999994,0.5025025025025024,0.7567567567567567,0.5019219701065629,0.49369691473219735,0.4983814988576312,0
0.4997498749374687,0.5025025025025024,0.7562562562562563,0.5018016289655894,0.49368296213614243,0.49844428553987824,0
0.4997498749374687,0.5025025025025024,0.7562562562562563,0.5017405863578492,0.49368296213614243,0.4983675462615763,0
0.4997498749374687,0.5025025025025024,0.7562562562562563,0.5018923208399463,0.4936201754538954,0.49835184959101453,0
0.49999999999999994,0.5025025025025024,0.7562562562562563,0.5018766241693845,0.4936672654655807,0.4983675462615763,0
0.49999999999999994,0.5025025025025024,0.7562562562562563,0.5019376667771247,0.4936201754538954,0.49835184959101453,0
0.4997498749374687,0.5025025025025024,0.7562562562562563,0.5018312782322061,0.4937126114027591,0.49827511031271254,0
0.4997498749374687,0.5025025025025024,0.7565065065065064,0.5018312782322061,0.49368296213614243,0.49839719552819295,0
0.49999999999999994,0.5025025025025024,0.7565065065065064,0.5018766241693845,0.4936672654655807,0.4984285888693165,0
0.49999999999999994,0.5025025025025024,0.7565065065065064,0.5018609274988227,0.4936201754538954,0.49839719552819295,0
0.4997498749374687,0.5027527527527527,0.7562562562562563,0.5018923208399463,0.4936515687950189,0.49844428553987824,0
0.4997498749374687,0.5027527527527527,0.7565065065065064,0.5018923208399463,0.4935591328461552,0.49841289219875473,0
0.4997498749374687,0.5025025025025024,0.756006006006006,0.5019080175105081,0.4937283080733209,0.4983814988576312,0
0.4997498749374687,0.5027527527527527,0.7565065065065064,0.5019376667771247,0.4935905261872787,0.49841289219875473,0
0.4994997498749374,0.5025025025025024,0.756006006006006,0.5019376667771247,0.4936672654655807,0.49839719552819295,0
0.4997498749374687,0.5027527527527527,0.7562562562562563,0.5019690601182483,0.4936515687950189,0.4983814988576312,0
0.5002501250625312,0.5027527527527527,0.7565065065065064,0.50198475678881,0.4936062228578405,0.4983065036538361,0
0.4997498749374687,0.5025025025025024,0.7565065065065064,0.5018155815616443,0.4936672654655807,0.49841289219875473,0
0.4994997498749374,0.5025025025025024,0.7562562562562563,0.5018766241693845,0.49369691473219735,0.49835184959101453,0
0.4994997498749374,0.5027527527527527,0.7565065065065064,0.5018312782322061,0.4935905261872787,0.49841289219875473,0
0.49999999999999994,0.5025025025025024,0.7562562562562563,0.5019376667771247,0.49363587212445714,0.49841289219875473,0
0.4997498749374687,0.5027527527527527,0.7565065065065064,0.5018923208399463,0.4936201754538954,0.4983675462615763,0
0.49999999999999994,0.5025025025025024,0.7562562562562563,0.5019219701065629,0.4936515687950189,0.4985035840731116,0
0.4997498749374687,0.5025025025025024,0.7562562562562563,0.5019376667771247,0.4936515687950189,0.49839719552819295,0
0.4997498749374687,0.5027527527527527,0.7567567567567567,0.5018766241693845,0.49363587212445714,0.4983675462615763,0
0.4997498749374687,0.5027527527527527,0.7565065065065064,0.5018766241693845,0.49368296213614243,0.4983675462615763,0
0.4997498749374687,0.5025025025025024,0.756006006006006,0.5018609274988227,0.4937126114027591,0.4983675462615763,0
0.4994997498749374,0.5025025025025024,0.7565065065065064,0.5019080175105081,0.49368296213614243,0.49839719552819295,0
0.49999999999999994,0.5022522522522521,0.7565065065065064,0.5019533634476865,0.49375795733993755,0.49844428553987824,0
0.49999999999999994,0.5025025025025024,0.7565065065065064,0.5018312782322061,0.4936515687950189,0.49845823813593315,0
0.4997498749374687,0.5025025025025024,0.7562562562562563,0.5018469749027679,0.49368296213614243,0.49845823813593315,0
0.4997498749374687,0.5025025025025024,0.7562562562562563,0.5018016289655894,0.49363587212445714,0.4983814988576312,0
0.4997498749374687,0.5027527527527527,0.7565065065065064,0.5018923208399463,0.49369691473219735,0.49839719552819295,0
0.4997498749374687,0.5025025025025024,0.7565065065065064,0.5018766241693845,0.4936672654655807,0.49845823813593315,0
0.4997498749374687,0.5027527527527527,0.7565065065065064,0.5018609274988227,0.4936672654655807,0.49845823813593315,0
0.49999999999999994,0.5025025025025024,0.7562562562562563,0.5018609274988227,0.49369691473219735,0.4983814988576312,0
0.4997498749374687,0.5025025025025024,0.7565065065065064,0.5018923208399463,0.4935591328461552,0.49839719552819295,0
0.4997498749374687,0.5025025025025024,0.7565065065065064,0.5018766241693845,0.49363587212445714,0.4984896314770567,0
0.4997498749374687,0.5025025025025024,0.756006006006006,0.5018312782322061,0.4937126114027591,0.49839719552819295,0
0.49999999999999994,0.5025025025025024,0.7562562562562563,0.5018312782322061,0.4937126114027591,0.49835184959101453,0
0.4997498749374687,0.5027527527527527,0.7562562562562563,0.5019219701065629,0.49369691473219735,0.49847393480649493,0
0.4997498749374687,0.5025025025025024,0.7567567567567567,0.5018609274988227,0.4936062228578405,0.49845823813593315,0
0.4997498749374687,0.5027527527527527,0.7565065065065064,0.5018766241693845,0.4936672654655807,0.4984285888693165,0
0.4997498749374687,0.5025025025025024,0.7565065065065064,0.5019533634476865,0.4936515687950189,0.49845823813593315,0
0.4997498749374687,0.5025025025025024,0.7565065065065064,0.5018766241693845,0.49369691473219735,0.49847393480649493,0
0.4997498749374687,0.5025025025025024,0.7565065065065064,0.5018469749027679,0.49369691473219735,0.49847393480649493,0
0.4997498749374687,0.5025025025025024,0.7565065065065064,0.5017859322950277,0.4936515687950189,0.49844428553987824,0
0.49999999999999994,0.5025025025025024,0.7562562562562563,0.5019080175105081,0.4936672654655807,0.49845823813593315,0
0.49999999999999994,0.5025025025025024,0.756006006006006,0.5018923208399463,0.4936672654655807,0.49845823813593315,0
0.4994997498749374,0.5027527527527527,0.7565065065065064,0.5018923208399463,0.49368296213614243,0.49844428553987824,0
0.4994997498749374,0.5025025025025024,0.7562562562562563,0.5018923208399463,0.4936201754538954,0.49845823813593315,0
0.4997498749374687,0.5027527527527527,0.7562562562562563,0.5018155815616443,0.4936515687950189,0.49839719552819295,0
0.49999999999999994,0.5022522522522521,0.7562562562562563,0.5019080175105081,0.4936201754538954,0.4984285888693165,0
0.4997498749374687,0.5027527527527527,0.7567567567567567,0.5018923208399463,0.4936672654655807,0.49847393480649493,0
0.4997498749374687,0.5025025025025024,0.7557557557557557,0.5018155815616443,0.4936672654655807,0.49835184959101453,0
0.49999999999999994,0.5025025025025024,0.7565065065065064,0.5018609274988227,0.49357482951671694,0.49839719552819295,0
0.4997498749374687,0.5025025025025024,0.7562562562562563,0.5018469749027679,0.49363587212445714,0.49833615292045275,0
0.49999999999999994,0.5027527527527527,0.7565065065065064,0.5019080175105081,0.4936672654655807,0.4983814988576312,0
0.49999999999999994,0.5025025025025024,0.7562562562562563,0.5018469749027679,0.49363587212445714,0.4983675462615763,0
0.4997498749374687,0.5025025025025024,0.7565065065065064,0.5019080175105081,0.49369691473219735,0.4984285888693165,0
0.4997498749374687,0.5025025025025024,0.7562562562562563,0.5018609274988227,0.4936062228578405,0.49841289219875473,0
0.4994997498749374,0.5025025025025024,0.7562562562562563,0.5018609274988227,0.4936515687950189,0.4984285888693165,0
0.4997498749374687,0.5027527527527527,0.7562562562562563,0.5018155815616443,0.4936515687950189,0.49841289219875473,0
0.4997498749374687,0.5025025025025024,0.7562562562562563,0.5019376667771247,0.49357482951671694,0.4983814988576312,0
0.4997498749374687,0.5025025025025024,0.7565065065065064,0.5019080175105081,0.4936515687950189,0.4983675462615763,0
0.4997498749374687,0.5027527527527527,0.7565065065065064,0.5018923208399463,0.4936062228578405,0.4983814988576312,0
0.4997498749374687,0.5025025025025024,0.7562562562562563,0.5019080175105081,0.4937283080733209,0.49839719552819295,0
0.4997498749374687,0.5025025025025024,0.7565065065065064,0.5019376667771247,0.49363587212445714,0.4984285888693165,0
0.4997498749374687,0.5025025025025024,0.7565065065065064,0.5019376667771247,0.49363587212445714,0.49839719552819295,0
0.49924962481240615,0.5025025025025024,0.7565065065065064,0.5018469749027679,0.49368296213614243,0.49845823813593315,0
0.4994997498749374,0.5025025025025024,0.7567567567567567,0.5018155815616443,0.4936515687950189,0.4983675462615763,0
0.5002501250625312,0.5025025025025024,0.7562562562562563,0.5018312782322061,0.49369691473219735,0.49841289219875473,0
0.4994997498749374,0.5025025025025024,0.7562562562562563,0.5018923208399463,0.4936515687950189,0.49845823813593315,0
0.4994997498749374,0.5027527527527527,0.7565065065065064,0.5018923208399463,0.49369691473219735,0.49839719552819295,0
0.4997498749374687,0.5027527527527527,0.7567567567567567,0.5018923208399463,0.4936672654655807,0.49841289219875473,0
0.49999999999999994,0.5027527527527527,0.7562562562562563,0.5019219701065629,0.4936672654655807,0.4983814988576312,0
0.4994997498749374,0.5025025025025024,0.7565065065065064,0.5019219701065629,0.4936515687950189,0.4983814988576312,0
0.4997498749374687,0.5025025025025024,0.7562562562562563,0.5018766241693845,0.49368296213614243,0.49832220032439783,0
0.4997498749374687,0.5022522522522521,0.7567567567567567,0.5018469749027679,0.4936672654655807,0.49839719552819295,0
0.4997498749374687,0.5027527527527527,0.7565065065065064,0.5018609274988227,0.49369691473219735,0.49833615292045275,0
0.4997498749374687,0.5027527527527527,0.7565065065065064,0.5019080175105081,0.4936672654655807,0.49841289219875473,0
0.4997498749374687,0.5027527527527527,0.7567567567567567,0.5018609274988227,0.49363587212445714,0.49839719552819295,0
0.49999999999999994,0.5025025025025024,0.7562562562562563,0.5018312782322061,0.49363587212445714,0.4984285888693165,0
0.4997498749374687,0.5025025025025024,0.7565065065065064,0.5018469749027679,0.4937126114027591,0.49839719552819295,0
0.4997498749374687,0.5025025025025024,0.7557557557557557,0.5018609274988227,0.4936672654655807,0.4983675462615763,0
0.4994997498749374,0.5027527527527527,0.7565065065065064,0.5018609274988227,0.4936062228578405,0.49845823813593315,0
0.49999999999999994,0.5025025025025024,0.7557557557557557,0.5018609274988227,0.49368296213614243,0.49839719552819295,0
0.49999999999999994,0.5025025025025024,0.7565065065065064,0.50198475678881,0.4936062228578405,0.4984285888693165,0
0.4994997498749374,0.5025025025025024,0.7562562562562563,0.5019080175105081,0.4935905261872787,0.49844428553987824,0
0.4994997498749374,0.5027527527527527,0.7562562562562563,0.5017545389539041,0.49369691473219735,0.4983675462615763,0
0.49999999999999994,0.5027527527527527,0.7565065065065064,0.5019376667771247,0.4936062228578405,0.49839719552819295,0
0.49999999999999994,0.5027527527527527,0.7565065065065064,0.5019080175105081,0.4936672654655807,0.4983814988576312,0
0.4994997498749374,0.5025025025025024,0.7562562562562563,0.5018609274988227,0.4936515687950189,0.4983814988576312,0
0.49999999999999994,0.5027527527527527,0.756006006006006,0.5018312782322061,0.4936201754538954,0.49835184959101453,0
0.4997498749374687,0.5027527527527527,0.7565065065065064,0.5018155815616443,0.4936062228578405,0.49832220032439783,0
0.4994997498749374,0.5025025025025024,0.7565065065065064,0.5018016289655894,0.4937422606693758,0.49845823813593315,0
0.4997498749374687,0.5025025025025024,0.7565065065065064,0.5017545389539041,0.49377365401049933,0.4984285888693165,0
0.4997498749374687,0.5027527527527527,0.7565065065065064,0.5019376667771247,0.49363587212445714,0.49839719552819295,0
0.5002501250625312,0.5025025025025024,0.7565065065065064,0.5018766241693845,0.49368296213614243,0.4984285888693165,0
0.49999999999999994,0.5022522522522521,0.7562562562562563,0.5018609274988227,0.4936515687950189,0.4983814988576312,0
0.4997498749374687,0.5025025025025024,0.7565065065065064,0.5019080175105081,0.49357482951671694,0.4983814988576312,0
0.4997498749374687,0.5025025025025024,0.7562562562562563,0.5018766241693845,0.4936201754538954,0.49847393480649493,0
0.4997498749374687,0.5025025025025024,0.7565065065065064,0.5018312782322061,0.49363587212445714,0.4983814988576312,0
0.4994997498749374,0.5025025025025024,0.7565065065065064,0.5018016289655894,0.4937283080733209,0.49841289219875473,0
0.4997498749374687,0.5025025025025024,0.7565065065065064,0.5019376667771247,0.49369691473219735,0.49845823813593315,0
0.4997498749374687,0.5025025025025024,0.7565065065065064,0.5018609274988227,0.4936515687950189,0.49839719552819295,0
0.49999999999999994,0.5027527527527527,0.7565065065065064,0.5018766241693845,0.49369691473219735,0.49835184959101453,0
0.4997498749374687,0.5025025025025024,0.7565065065065064,0.5020144060554267,0.49369691473219735,0.49844428553987824,0
0.4994997498749374,0.5025025025025024,0.7562562562562563,0.5019080175105081,0.49363587212445714,0.49841289219875473,0
0.49999999999999994,0.5027527527527527,0.7565065065065064,0.5018923208399463,0.49368296213614243,0.49835184959101453,0
0.4997498749374687,0.5022522522522521,0.7567567567567567,0.5019080175105081,0.4936062228578405,0.49844428553987824,0
0.4997498749374687,0.5025025025025024,0.7565065065065064,0.5018155815616443,0.49369691473219735,0.4983814988576312,0
0.4997498749374687,0.5025025025025024,0.7565065065065064,0.5018155815616443,0.4937126114027591,0.49844428553987824,0
0.49999999999999994,0.5027527527527527,0.7565065065065064,0.50198475678881,0.49363587212445714,0.4983675462615763,0
0.49999999999999994,0.5027527527527527,0.756006006006006,0.5018609274988227,0.49368296213614243,0.49845823813593315,0
0.49999999999999994,0.5025025025025024,0.7567567567567567,0.5019690601182483,0.4936515687950189,0.4984896314770567,0
0.4997498749374687,0.5022522522522521,0.7565065065065064,0.5019219701065629,0.49369691473219735,0.49833615292045275,0
0.4997498749374687,0.5025025025025024,0.7565065065065064,0.5017702356244659,0.49369691473219735,0.4983814988576312,0
0.4994997498749374,0.5025025025025024,0.7562562562562563,0.5019219701065629,0.49363587212445714,0.4984896314770567,0
0.49999999999999994,0.5022522522522521,0.7565065065065064,0.5019080175105081,0.4935591328461552,0.49844428553987824,0
0.4997498749374687,0.5025025025025024,0.7565065065065064,0.5020144060554267,0.4936062228578405,0.49835184959101453,0
0.49999999999999994,0.502002002002002,0.7557557557557557,0.5018155815616443,0.4937283080733209,0.49833615292045275,0
0.4994997498749374,0.5027527527527527,0.7562562562562563,0.5019533634476865,0.4935905261872787,0.49844428553987824,0
0.4997498749374687,0.5027527527527527,0.7567567567567567,0.5019987093848649,0.49369691473219735,0.49833615292045275,0
0.4997498749374687,0.5027527527527527,0.7567567567567567,0.5017859322950277,0.49368296213614243,0.4984285888693165,0
0.49999999999999994,0.5025025025025024,0.7562562562562563,0.5018923208399463,0.4936515687950189,0.4984285888693165,0
0.4994997498749374,0.5025025025025024,0.7565065065065064,0.5019376667771247,0.4937283080733209,0.4983065036538361,0
0.49999999999999994,0.5027527527527527,0.7565065065065064,0.50198475678881,0.49357482951671694,0.49839719552819295,0
0.4994997498749374,0.5025025025025024,0.756006006006006,0.5017702356244659,0.49377365401049933,0.4984285888693165,0
0.4997498749374687,0.5030030030030029,0.7565065065065064,0.50198475678881,0.4935451802501003,0.4984285888693165,0
0.49924962481240615,0.5027527527527527,0.7565065065065064,0.5018312782322061,0.4936201754538954,0.49835184959101453,0
0.4994997498749374,0.5025025025025024,0.756006006006006,0.5018312782322061,0.4936515687950189,0.4983814988576312,0
0.49999999999999994,0.5022522522522521,0.7562562562562563,0.5018155815616443,0.49375795733993755,0.4983675462615763,0
0.4997498749374687,0.5022522522522521,0.7562562562562563,0.5018609274988227,0.49363587212445714,0.49839719552819295,0
0.4997498749374687,0.5025025025025024,0.7562562562562563,0.5018469749027679,0.4936672654655807,0.49832220032439783,0
0.4994997498749374,0.5022522522522521,0.7567567567567567,0.5018016289655894,0.49363587212445714,0.49839719552819295,0
0.4997498749374687,0.5027527527527527,0.7565065065065064,0.5018609274988227,0.4937126114027591,0.4984285888693165,0
0.4994997498749374,0.5027527527527527,0.756006006006006,0.5018923208399463,0.4936515687950189,0.49833615292045275,0
0.4997498749374687,0.5022522522522521,0.7557557557557557,0.5018923208399463,0.4936672654655807,0.4984285888693165,0
0.49999999999999994,0.5025025025025024,0.757007007007007,0.50198475678881,0.4935905261872787,0.4983675462615763,0
0.49999999999999994,0.5025025025025024,0.7562562562562563,0.5018469749027679,0.4937126114027591,0.49839719552819295,0
0.4994997498749374,0.5025025025025024,0.756006006006006,0.5018766241693845,0.49369691473219735,0.4984285888693165,0
0.49999999999999994,0.5025025025025024,0.7562562562562563,0.5018923208399463,0.49369691473219735,0.49835184959101453,0
0.4997498749374687,0.5022522522522521,0.7567567567567567,0.5018469749027679,0.4936062228578405,0.49835184959101453,0
0.4997498749374687,0.5025025025025024,0.756006006006006,0.5018469749027679,0.49368296213614243,0.4983675462615763,0
0.4994997498749374,0.5022522522522521,0.7565065065065064,0.5017702356244659,0.49363587212445714,0.49839719552819295,0
0.4997498749374687,0.5025025025025024,0.757007007007007,0.5020457993965503,0.4935905261872787,0.49841289219875473,0
0.4997498749374687,0.5025025025025024,0.756006006006006,0.5017545389539041,0.493803303277116,0.49839719552819295,0
0.4994997498749374,0.5025025025025024,0.7562562562562563,0.5018155815616443,0.49368296213614243,0.49827511031271254,0
0.4997498749374687,0.5025025025025024,0.756006006006006,0.5018609274988227,0.49363587212445714,0.49835184959101453,0
0.49999999999999994,0.5025025025025024,0.7567567567567567,0.5019219701065629,0.4936062228578405,0.4984285888693165,0
0.4997498749374687,0.5027527527527527,0.7565065065065064,0.5019080175105081,0.4937126114027591,0.49832220032439783,0
0.4994997498749374,0.5025025025025024,0.7562562562562563,0.5018923208399463,0.4936515687950189,0.49835184959101453,0
0.4994997498749374,0.5025025025025024,0.7562562562562563,0.5018766241693845,0.49357482951671694,0.4983814988576312,0
0.49999999999999994,0.5025025025025024,0.7567567567567567,0.5018923208399463,0.4936201754538954,0.49844428553987824,0
0.49999999999999994,0.5025025025025024,0.7562562562562563,0.5018312782322061,0.49368296213614243,0.4983814988576312,0
0.4997498749374687,0.5025025025025024,0.7562562562562563,0.5018923208399463,0.4935905261872787,0.4985035840731116,0
0.4994997498749374,0.5025025025025024,0.7562562562562563,0.5018766241693845,0.4936515687950189,0.49841289219875473,0
0.4997498749374687,0.5025025025025024,0.7567567567567567,0.5019080175105081,0.4936062228578405,0.49835184959101453,0
0.5002501250625312,0.5022522522522521,0.7567567567567567,0.5019376667771247,0.49363587212445714,0.4984285888693165,0
0.4994997498749374,0.5025025025025024,0.756006006006006,0.5018312782322061,0.4936672654655807,0.49832220032439783,0
0.4997498749374687,0.5025025025025024,0.7565065065065064,0.5018766241693845,0.4936062228578405,0.49839719552819295,0
0.4997498749374687,0.5025025025025024,0.756006006006006,0.5018312782322061,0.4937126114027591,0.4983675462615763,0
0.49999999999999994,0.5027527527527527,0.757007007007007,0.5018469749027679,0.49363587212445714,0.49835184959101453,0
0.4994997498749374,0.5025025025025024,0.7565065065065064,0.5018766241693845,0.49369691473219735,0.4984285888693165,0
0.4997498749374687,0.5025025025025024,0.7562562562562563,0.5019080175105081,0.4936515687950189,0.4983675462615763,0
0.4994997498749374,0.5025025025025024,0.7562562562562563,0.5018766241693845,0.4936515687950189,0.49839719552819295,0
0.49999999999999994,0.5025025025025024,0.7565065065065064,0.5018923208399463,0.4937126114027591,0.4983814988576312,0
0.4997498749374687,0.5027527527527527,0.7562562562562563,0.5018923208399463,0.49369691473219735,0.49835184959101453,0
0.49999999999999994,0.5025025025025024,0.7565065065065064,0.5019376667771247,0.4935451802501003,0.4983065036538361,0
0.4997498749374687,0.5025025025025024,0.7565065065065064,0.5018469749027679,0.49368296213614243,0.4983675462615763,0
0.4997498749374687,0.5025025025025024,0.7565065065065064,0.5018469749027679,0.4936515687950189,0.49841289219875473,0
0.4997498749374687,0.5025025025025024,0.7565065065065064,0.5018469749027679,0.4937422606693758,0.4983675462615763,0
0.4997498749374687,0.5025025025025024,0.7565065065065064,0.5019219701065629,0.4936201754538954,0.4983675462615763,0
0.49999999999999994,0.5025025025025024,0.7562562562562563,0.5018766241693845,0.4936515687950189,0.4983675462615763,0
0.4994997498749374,0.5025025025025024,0.7565065065065064,0.5019533634476865,0.4936672654655807,0.49844428553987824,0
0.4994997498749374,0.5025025025025024,0.7562562562562563,0.5018469749027679,0.4936062228578405,0.4983675462615763,0
0.4994997498749374,0.5025025025025024,0.7562562562562563,0.5018469749027679,0.49369691473219735,0.49845823813593315,0
0.49999999999999994,0.5025025025025024,0.7562562562562563,0.5018609274988227,0.4936515687950189,0.4984285888693165,0
0.4997498749374687,0.5025025025025024,0.7565065065065064,0.50198475678881,0.4936515687950189,0.4984285888693165,0
0.4997498749374687,0.5025025025025024,0.7565065065065064,0.5019690601182483,0.49363587212445714,0.4983814988576312,0
0.4997498749374687,0.5025025025025024,0.7565065065065064,0.5018469749027679,0.49375795733993755,0.4984285888693165,0
0.49999999999999994,0.5025025025025024,0.7565065065065064,0.5019219701065629,0.4935905261872787,0.49844428553987824,0
0.4997498749374687,0.5025025025025024,0.7565065065065064,0.5018923208399463,0.4937126114027591,0.49841289219875473,0
0.4994997498749374,0.5027527527527527,0.7565065065065064,0.5018766241693845,0.49368296213614243,0.4983814988576312,0
0.4994997498749374,0.5025025025025024,0.7562562562562563,0.5018312782322061,0.49368296213614243,0.49845823813593315,0
0.49999999999999994,0.5025025025025024,0.7562562562562563,0.5018923208399463,0.4936515687950189,0.4983675462615763,0
0.49999999999999994,0.5025025025025024,0.7562562562562563,0.5018923208399463,0.4936062228578405,0.4984896314770567,0
0.4997498749374687,0.5025025025025024,0.7565065065065064,0.5018609274988227,0.49369691473219735,0.4984285888693165,0
0.49999999999999994,0.5027527527527527,0.7565065065065064,0.5018609274988227,0.4937283080733209,0.49845823813593315,0
0.4997498749374687,0.5027527527527527,0.7565065065065064,0.5018923208399463,0.4937126114027591,0.4983814988576312,0
0.4997498749374687,0.5025025025025024,0.756006006006006,0.5018609274988227,0.4936201754538954,0.4983675462615763,0
0.4997498749374687,0.5025025025025024,0.7565065065065064,0.5019376667771247,0.49368296213614243,0.49841289219875473,0
0.4997498749374687,0.5025025025025024,0.756006006006006,0.5018312782322061,0.49369691473219735,0.49844428553987824,0
0.4997498749374687,0.5025025025025024,0.7562562562562563,0.5019690601182483,0.4936515687950189,0.4983814988576312,0
0.49999999999999994,0.5025025025025024,0.7562562562562563,0.5018609274988227,0.49369691473219735,0.49833615292045275,0
0.4997498749374687,0.5027527527527527,0.7562562562562563,0.5019219701065629,0.4936672654655807,0.49839719552819295,0
0.4997498749374687,0.5025025025025024,0.756006006006006,0.5018312782322061,0.4936515687950189,0.4983814988576312,0
0.49999999999999994,0.5025025025025024,0.7565065065065064,0.5018609274988227,0.49369691473219735,0.4983814988576312,0
0.49999999999999994,0.5025025025025024,0.7562562562562563,0.5018766241693845,0.4935905261872787,0.49839719552819295,0
0.4994997498749374,0.5027527527527527,0.7565065065065064,0.5019080175105081,0.4936672654655807,0.49833615292045275,0
0.4994997498749374,0.5025025025025024,0.7562562562562563,0.5018155815616443,0.4936672654655807,0.4983814988576312,0
0.49999999999999994,0.5025025025025024,0.7565065065065064,0.5017859322950277,0.49369691473219735,0.49839719552819295,0
0.4997498749374687,0.5025025025025024,0.7562562562562563,0.5019219701065629,0.49369691473219735,0.4983675462615763,0
0.4994997498749374,0.5027527527527527,0.7562562562562563,0.5018923208399463,0.4937126114027591,0.4983814988576312,0
0.4997498749374687,0.5027527527527527,0.7562562562562563,0.5018609274988227,0.4936672654655807,0.4983675462615763,0
0.4997498749374687,0.5025025025025024,0.7565065065065064,0.5018016289655894,0.4936515687950189,0.49839719552819295,0
0.4997498749374687,0.5022522522522521,0.7565065065065064,0.5018155815616443,0.49368296213614243,0.49841289219875473,0
0.4994997498749374,0.5027527527527527,0.7562562562562563,0.5018469749027679,0.4935905261872787,0.4984285888693165,0
0.49999999999999994,0.5027527527527527,0.7562562562562563,0.5018469749027679,0.4936515687950189,0.49835184959101453,0
0.4997498749374687,0.5025025025025024,0.756006006006006,0.5019080175105081,0.4936201754538954,0.4983814988576312,0
0.49999999999999994,0.5025025025025024,0.7562562562562563,0.5018766241693845,0.4936062228578405,0.49839719552819295,0
0.4994997498749374,0.5025025025025024,0.7562562562562563,0.5018312782322061,0.49363587212445714,0.4983814988576312,0
0.4994997498749374,0.5027527527527527,0.7565065065065064,0.5018766241693845,0.49368296213614243,0.49844428553987824,0
0.49999999999999994,0.5025025025025024,0.7562562562562563,0.5018766241693845,0.49369691473219735,0.4983814988576312,0
0.4997498749374687,0.5027527527527527,0.7565065065065064,0.5019080175105081,0.49369691473219735,0.49845823813593315,0
0.4994997498749374,0.5025025025025024,0.7565065065065064,0.5018312782322061,0.4936515687950189,0.49835184959101453,0
0.4997498749374687,0.5025025025025024,0.7562562562562563,0.5019080175105081,0.4935905261872787,0.49833615292045275,0
0.49999999999999994,0.5025025025025024,0.7562562562562563,0.5018016289655894,0.4937283080733209,0.49841289219875473,0
0.4997498749374687,0.5025025025025024,0.7565065065065064,0.5018609274988227,0.4936062228578405,0.49833615292045275,0
0.4997498749374687,0.5025025025025024,0.7562562562562563,0.5018766241693845,0.49363587212445714,0.49847393480649493,0
0.4994997498749374,0.5025025025025024,0.7567567567567567,0.5019376667771247,0.4936201754538954,0.4983675462615763,0
0.49999999999999994,0.5027527527527527,0.7565065065065064,0.5018155815616443,0.49369691473219735,0.4983675462615763,0
0.49999999999999994,0.5025025025025024,0.7562562562562563,0.5018766241693845,0.49368296213614243,0.49841289219875473,0
0.4997498749374687,0.5027527527527527,0.7565065065065064,0.5018766241693845,0.4935905261872787,0.4983675462615763,0
0.4997498749374687,0.5025025025025024,0.7565065065065064,0.5018923208399463,0.4937126114027591,0.49835184959101453,0
0.49999999999999994,0.5025025025025024,0.7557557557557557,0.5019219701065629,0.49368296213614243,0.49835184959101453,0
0.49999999999999994,0.5025025025025024,0.7562562562562563,0.5018923208399463,0.49369691473219735,0.4984285888693165,0
0.4994997498749374,0.5025025025025024,0.756006006006006,0.5019376667771247,0.4936672654655807,0.49845823813593315,0
0.4994997498749374,0.5025025025025024,0.7565065065065064,0.5018923208399463,0.49369691473219735,0.49839719552819295,0
0.4997498749374687,0.5025025025025024,0.7562562562562563,0.5018923208399463,0.4937126114027591,0.49845823813593315,0
0.49999999999999994,0.5025025025025024,0.756006006006006,0.5018016289655894,0.4937283080733209,0.49839719552819295,0
0.4997498749374687,0.5027527527527527,0.7565065065065064,0.5019080175105081,0.49357482951671694,0.4983814988576312,0
0.4994997498749374,0.5025025025025024,0.7562562562562563,0.5018609274988227,0.4936201754538954,0.49847393480649493,0
0.49999999999999994,0.5027527527527527,0.7565065065065064,0.5018469749027679,0.4936515687950189,0.4983814988576312,0
0.5002501250625312,0.5022522522522521,0.7562562562562563,0.5018469749027679,0.49375795733993755,0.49841289219875473,0
0.49924962481240615,0.5027527527527527,0.7567567567567567,0.5019376667771247,0.4936062228578405,0.49844428553987824,0
0.49924962481240615,0.5025025025025024,0.7567567567567567,0.5019533634476865,0.49363587212445714,0.4983814988576312,0
0.49999999999999994,0.5025025025025024,0.7562562562562563,0.5019080175105081,0.4936201754538954,0.4983814988576312,0
0.5002501250625312,0.5022522522522521,0.7562562562562563,0.5019080175105081,0.4936515687950189,0.49844428553987824,0
0.4994997498749374,0.5027527527527527,0.7567567567567567,0.5018766241693845,0.49369691473219735,0.49833615292045275,0
0.4994997498749374,0.5025025025025024,0.7565065065065064,0.5018766241693845,0.49368296213614243,0.4983814988576312,0
0.49999999999999994,0.5025025025025024,0.7565065065065064,0.5019080175105081,0.4937283080733209,0.49835184959101453,0
0.49999999999999994,0.5025025025025024,0.7562562562562563,0.5019080175105081,0.4936201754538954,0.49839719552819295,0
0.4994997498749374,0.5025025025025024,0.7557557557557557,0.5018923208399463,0.4936515687950189,0.49839719552819295,0
0.49999999999999994,0.5025025025025024,0.7567567567567567,0.5019219701065629,0.49363587212445714,0.4984285888693165,0
0.49999999999999994,0.5022522522522521,0.756006006006006,0.5018469749027679,0.4936672654655807,0.49835184959101453,0
0.4997498749374687,0.5027527527527527,0.7565065065065064,0.5018923208399463,0.4936515687950189,0.49833615292045275,0
0.4994997498749374,0.5027527527527527,0.7562562562562563,0.5018469749027679,0.4936672654655807,0.4984285888693165,0
0.4997498749374687,0.5025025025025024,0.7565065065065064,0.5018155815616443,0.49363587212445714,0.4982908069832743,0
0.49999999999999994,0.5022522522522521,0.7562562562562563,0.5018923208399463,0.4936672654655807,0.49845823813593315,0
0.4997498749374687,0.5025025025025024,0.7565065065065064,0.5018923208399463,0.4936672654655807,0.4984285888693165,0
0.4994997498749374,0.5027527527527527,0.7565065065065064,0.5018923208399463,0.49363587212445714,0.49839719552819295,0
0.4997498749374687,0.5025025025025024,0.7565065065065064,0.5018766241693845,0.4936515687950189,0.49839719552819295,0
0.5002501250625312,0.5025025025025024,0.7562562562562563,0.5018016289655894,0.4936515687950189,0.49833615292045275,0
0.49999999999999994,0.5025025025025024,0.7565065065065064,0.5018609274988227,0.4936672654655807,0.49839719552819295,0
0.4994997498749374,0.5022522522522521,0.7562562562562563,0.5018016289655894,0.49368296213614243,0.49845823813593315,0
0.49999999999999994,0.5025025025025024,0.7562562562562563,0.5018766241693845,0.4937422606693758,0.49844428553987824,0
0.49999999999999994,0.5025025025025024,0.756006006006006,0.5018609274988227,0.49369691473219735,0.4984285888693165,0
0.4997498749374687,0.5025025025025024,0.7562562562562563,0.5019533634476865,0.4936062228578405,0.49833615292045275,0
0.49999999999999994,0.5025025025025024,0.7567567567567567,0.5018766241693845,0.4936515687950189,0.4982908069832743,0
0.4997498749374687,0.5022522522522521,0.7562562562562563,0.5018766241693845,0.4937126114027591,0.4983814988576312,0
0.4997498749374687,0.5025025025025024,0.7565065065065064,0.5019376667771247,0.49375795733993755,0.49833615292045275,0
0.4997498749374687,0.5025025025025024,0.7562562562562563,0.5019376667771247,0.4936672654655807,0.49841289219875473,0
0.4997498749374687,0.5027527527527527,0.7562562562562563,0.5018766241693845,0.4937126114027591,0.4983675462615763,0
0.4997498749374687,0.5025025025025024,0.7565065065065064,0.5018609274988227,0.4937283080733209,0.4983675462615763,0
0.49999999999999994,0.5027527527527527,0.7565065065065064,0.5018766241693845,0.49369691473219735,0.49844428553987824,0
0.4997498749374687,0.5027527527527527,0.7562562562562563,0.5018609274988227,0.4937893506810611,0.4984285888693165,0
0.49999999999999994,0.5025025025025024,0.7562562562562563,0.5018469749027679,0.49363587212445714,0.49844428553987824,0
0.49999999999999994,0.5025025025025024,0.7562562562562563,0.5017859322950277,0.4936672654655807,0.49835184959101453,0
0.49999999999999994,0.5025025025025024,0.7562562562562563,0.5019219701065629,0.4937422606693758,0.49839719552819295,0
0.4997498749374687,0.5022522522522521,0.7562562562562563,0.5019219701065629,0.49368296213614243,0.4984285888693165,0
0.4997498749374687,0.5025025025025024,0.7562562562562563,0.5018766241693845,0.49368296213614243,0.4983675462615763,0
0.4994997498749374,0.5027527527527527,0.7565065065065064,0.5018312782322061,0.4937126114027591,0.49832220032439783,0
0.49999999999999994,0.5025025025025024,0.7567567567567567,0.5018469749027679,0.49368296213614243,0.49845823813593315,0
0.4994997498749374,0.5025025025025024,0.7565065065065064,0.5018609274988227,0.4936515687950189,0.49841289219875473,0
0.4997498749374687,0.5025025025025024,0.7562562562562563,0.5018923208399463,0.49363587212445714,0.49833615292045275,0
0.49999999999999994,0.5022522522522521,0.7565065065065064,0.5018766241693845,0.4936062228578405,0.49833615292045275,0
0.49999999999999994,0.5025025025025024,0.7562562562562563,0.5018155815616443,0.49368296213614243,0.4983814988576312,0
0.4997498749374687,0.5025025025025024,0.7562562562562563,0.5019080175105081,0.49368296213614243,0.4984285888693165,0
0.4997498749374687,0.5025025025025024,0.756006006006006,0.5018155815616443,0.4936672654655807,0.4984285888693165,0
0.49999999999999994,0.5025025025025024,0.7565065065065064,0.5019219701065629,0.49368296213614243,0.4983675462615763,0
0.4994997498749374,0.5025025025025024,0.7562562562562563,0.5018469749027679,0.49369691473219735,0.49839719552819295,0
0.4997498749374687,0.5025025025025024,0.7562562562562563,0.5019219701065629,0.4936515687950189,0.49839719552819295,0
0.4997498749374687,0.5025025025025024,0.7565065065065064,0.5019690601182483,0.49363587212445714,0.49845823813593315,0
0.4997498749374687,0.5027527527527527,0.7565065065065064,0.5018923208399463,0.49363587212445714,0.4984285888693165,0
0.4997498749374687,0.5025025025025024,0.756006006006006,0.5018923208399463,0.49375795733993755,0.49844428553987824,0
0.4997498749374687,0.5025025025025024,0.7562562562562563,0.5019219701065629,0.49369691473219735,0.49835184959101453,0
0.4997498749374687,0.5025025025025024,0.7562562562562563,0.5018923208399463,0.4936062228578405,0.49841289219875473,0
0.49999999999999994,0.5027527527527527,0.7565065065065064,0.5018923208399463,0.4936515687950189,0.49835184959101453,0
0.4994997498749374,0.5027527527527527,0.7562562562562563,0.5018155815616443,0.4936672654655807,0.4983675462615763,0
0.4994997498749374,0.5025025025025024,0.756006006006006,0.5019533634476865,0.49368296213614243,0.4983814988576312,0
0.4997498749374687,0.5025025025025024,0.7562562562562563,0.5018766241693845,0.4936515687950189,0.49833615292045275,0
0.49999999999999994,0.5025025025025024,0.7562562562562563,0.5018766241693845,0.49368296213614243,0.4984285888693165,0
0.4997498749374687,0.5025025025025024,0.7565065065065064,0.5018609274988227,0.4936515687950189,0.49839719552819295,0
0.4997498749374687,0.5025025025025024,0.7557557557557557,0.5019219701065629,0.49369691473219735,0.4983675462615763,0
0.4997498749374687,0.5025025025025024,0.7562562562562563,0.5019376667771247,0.49363587212445714,0.49835184959101453,0
0.4997498749374687,0.5025025025025024,0.756006006006006,0.5019080175105081,0.4937422606693758,0.49835184959101453,0
0.4994997498749374,0.5025025025025024,0.7565065065065064,0.5018609274988227,0.4936062228578405,0.49835184959101453,0
0.4997498749374687,0.5025025025025024,0.756006006006006,0.5018016289655894,0.49363587212445714,0.49835184959101453,0
0.4997498749374687,0.5027527527527527,0.756006006006006,0.5019219701065629,0.4937422606693758,0.4983814988576312,0
0.49999999999999994,0.5027527527527527,0.7562562562562563,0.5018766241693845,0.4936672654655807,0.49833615292045275,0
0.4997498749374687,0.5025025025025024,0.7565065065065064,0.5018766241693845,0.49369691473219735,0.4984285888693165,0
0.49999999999999994,0.5025025025025024,0.7565065065065064,0.5018469749027679,0.4936062228578405,0.4984896314770567,0
0.49999999999999994,0.5027527527527527,0.756006006006006,0.5018312782322061,0.49368296213614243,0.49844428553987824,0
0.4997498749374687,0.5025025025025024,0.7565065065065064,0.5018923208399463,0.4936672654655807,0.4984285888693165,0
0.4997498749374687,0.5022522522522521,0.756006006006006,0.5018469749027679,0.49368296213614243,0.49835184959101453,0
0.4994997498749374,0.5025025025025024,0.7562562562562563,0.5019376667771247,0.49363587212445714,0.49844428553987824,0
0.4994997498749374,0.5025025025025024,0.7562562562562563,0.5018923208399463,0.4937126114027591,0.4983675462615763,0
0.49999999999999994,0.5025025025025024,0.756006006006006,0.5019376667771247,0.4936062228578405,0.4984285888693165,0
0.49999999999999994,0.5025025025025024,0.7562562562562563,0.5017702356244659,0.4937422606693758,0.4983814988576312,0
0.4997498749374687,0.5025025025025024,0.7565065065065064,0.5019219701065629,0.4936515687950189,0.49839719552819295,0
0.4997498749374687,0.5025025025025024,0.756006006006006,0.5018766241693845,0.4936672654655807,0.49839719552819295,0
0.49999999999999994,0.5025025025025024,0.7562562562562563,0.5019219701065629,0.49363587212445714,0.49844428553987824,0
0.49999999999999994,0.5025025025025024,0.7562562562562563,0.5018923208399463,0.4936515687950189,0.49844428553987824,0
0.49999999999999994,0.5025025025025024,0.7565065065065064,0.5018923208399463,0.4936672654655807,0.49839719552819295,0
0.4997498749374687,0.5025025025025024,0.7562562562562563,0.5018766241693845,0.49357482951671694,0.49833615292045275,0
0.4997498749374687,0.5025025025025024,0.756006006006006,0.5018923208399463,0.49363587212445714,0.49844428553987824,0
0.4997498749374687,0.5027527527527527,0.7565065065065064,0.5018469749027679,0.4936515687950189,0.49839719552819295,0
0.49999999999999994,0.5027527527527527,0.7565065065065064,0.5019080175105081,0.49369691473219735,0.49841289219875473,0
0.4997498749374687,0.5027527527527527,0.7562562562562563,0.5018469749027679,0.4936515687950189,0.49841289219875473,0
0.4997498749374687,0.5025025025025024,0.7562562562562563,0.5018469749027679,0.4936062228578405,0.49839719552819295,0
0.4997498749374687,0.5027527527527527,0.7565065065065064,0.5019080175105081,0.4936201754538954,0.4983814988576312,0
0.49999999999999994,0.5025025025025024,0.7567567567567567,0.5019376667771247,0.4935905261872787,0.4984285888693165,0
0.4994997498749374,0.5025025025025024,0.7565065065065064,0.5019080175105081,0.4936515687950189,0.49841289219875473,0
0.4994997498749374,0.5022522522522521,0.7562562562562563,0.5019376667771247,0.4936515687950189,0.49839719552819295,0
0.4994997498749374,0.5027527527527527,0.7565065065065064,0.5019080175105081,0.4936672654655807,0.4983675462615763,0
0.4997498749374687,0.5025025025025024,0.7567567567567567,0.5018923208399463,0.4936062228578405,0.4983814988576312,0
0.49999999999999994,0.5025025025025024,0.7557557557557557,0.5018766241693845,0.49369691473219735,0.49833615292045275,0
0.4994997498749374,0.5025025025025024,0.7562562562562563,0.5019533634476865,0.4936672654655807,0.49832220032439783,0
0.4994997498749374,0.5025025025025024,0.7562562562562563,0.5019080175105081,0.4935905261872787,0.4983675462615763,0
0.49999999999999994,0.5022522522522521,0.7562562562562563,0.5018609274988227,0.4936672654655807,0.4984285888693165,0
0.4997498749374687,0.5025025025025024,0.756006006006006,0.5018155815616443,0.49368296213614243,0.4984285888693165,0
0.49999999999999994,0.5027527527527527,0.7567567567567567,0.5019533634476865,0.4935905261872787,0.49835184959101453,0
0.49999999999999994,0.5025025025025024,0.7565065065065064,0.5019219701065629,0.4936515687950189,0.49839719552819295,0
0.4997498749374687,0.5025025025025024,0.7562562562562563,0.5019219701065629,0.4936515687950189,0.4983675462615763,0
0.4997498749374687,0.5025025025025024,0.7555055055055054,0.5019080175105081,0.4936672654655807,0.49835184959101453,0
0.49999999999999994,0.5025025025025024,0.7565065065065064,0.5018469749027679,0.49363587212445714,0.4983675462615763,0
0.4997498749374687,0.5025025025025024,0.7562562562562563,0.5019219701065629,0.4936201754538954,0.49841289219875473,0
0.4997498749374687,0.5025025025025024,0.7562562562562563,0.5018609274988227,0.49369691473219735,0.4983814988576312,0
0.4997498749374687,0.5025025025025024,0.7562562562562563,0.5019533634476865,0.4936201754538954,0.49841289219875473,0
0.49999999999999994,0.5025025025025024,0.756006006006006,0.5019080175105081,0.4936201754538954,0.4983675462615763,0
0.4997498749374687,0.5022522522522521,0.7567567567567567,0.5019080175105081,0.49369691473219735,0.4984285888693165,0
0.4994997498749374,0.5027527527527527,0.7565065065065064,0.5019080175105081,0.4936672654655807,0.49833615292045275,0
0.4997498749374687,0.5025025025025024,0.7562562562562563,0.5019690601182483,0.49369691473219735,0.4983814988576312,0
0.49999999999999994,0.5022522522522521,0.7562562562562563,0.5018609274988227,0.4936515687950189,0.49841289219875473,0
0.4997498749374687,0.5027527527527527,0.7565065065065064,0.5018766241693845,0.4937126114027591,0.49835184959101453,0
0.4997498749374687,0.5025025025025024,0.756006006006006,0.5018469749027679,0.49369691473219735,0.4983814988576312,0
0.4997498749374687,0.5027527527527527,0.7562562562562563,0.5018923208399463,0.4936201754538954,0.49835184959101453,0
0.4997498749374687,0.5027527527527527,0.756006006006006,0.5018609274988227,0.4936201754538954,0.4984285888693165,0
0.4994997498749374,0.5025025025025024,0.7562562562562563,0.5018766241693845,0.4936672654655807,0.4983814988576312,0
0.4994997498749374,0.5025025025025024,0.7565065065065064,0.5018766241693845,0.4936515687950189,0.49839719552819295,0
0.4997498749374687,0.5025025025025024,0.7565065065065064,0.5018609274988227,0.4936672654655807,0.49841289219875473,0
0.5002501250625312,0.5025025025025024,0.7565065065065064,0.5018923208399463,0.4935905261872787,0.4983675462615763,0
0.4997498749374687,0.5025025025025024,0.7565065065065064,0.5018766241693845,0.4936201754538954,0.49844428553987824,0
0.49999999999999994,0.5025025025025024,0.7562562562562563,0.5019690601182483,0.49363587212445714,0.49844428553987824,0
0.49999999999999994,0.5027527527527527,0.7565065065065064,0.5019690601182483,0.49363587212445714,0.4983675462615763,0
0.4997498749374687,0.5027527527527527,0.7562562562562563,0.5018016289655894,0.4936672654655807,0.4983675462615763,0
0.4997498749374687,0.5025025025025024,0.7562562562562563,0.5019080175105081,0.49368296213614243,0.49845823813593315,0
0.4997498749374687,0.5025025025025024,0.7562562562562563,0.5019219701065629,0.4936515687950189,0.49841289219875473,0
0.4997498749374687,0.5025025025025024,0.7565065065065064,0.5019080175105081,0.49368296213614243,0.4983814988576312,0
0.49999999999999994,0.5025025025025024,0.756006006006006,0.5019080175105081,0.49368296213614243,0.49839719552819295,0
0.4997498749374687,0.5025025025025024,0.7562562562562563,0.5018766241693845,0.4937283080733209,0.4983814988576312,0
0.4997498749374687,0.5025025025025024,0.7562562562562563,0.5019219701065629,0.4937283080733209,0.49841289219875473,0
0.4994997498749374,0.5025025025025024,0.7562562562562563,0.5019219701065629,0.49368296213614243,0.49841289219875473,0
0.49999999999999994,0.5022522522522521,0.7562562562562563,0.5019376667771247,0.4936515687950189,0.4983675462615763,0
0.4997498749374687,0.5025025025025024,0.7562562562562563,0.5019080175105081,0.49363587212445714,0.4983814988576312,0
0.49924962481240615,0.5027527527527527,0.7565065065065064,0.50198475678881,0.4936515687950189,0.4983814988576312,0
0.4997498749374687,0.5025025025025024,0.7565065065065064,0.5018155815616443,0.49368296213614243,0.4984285888693165,0
0.4994997498749374,0.5027527527527527,0.7565065065065064,0.5018469749027679,0.49369691473219735,0.49839719552819295,0
0.4997498749374687,0.5025025025025024,0.7562562562562563,0.5017859322950277,0.4937283080733209,0.49845823813593315,0
0.4997498749374687,0.5025025025025024,0.7562562562562563,0.5019080175105081,0.4936672654655807,0.4983814988576312,0
0.49999999999999994,0.5025025025025024,0.7562562562562563,0.5018469749027679,0.49369691473219735,0.4984896314770567,0
0.4997498749374687,0.5022522522522521,0.756006006006006,0.5018609274988227,0.49363587212445714,0.4983814988576312,0
0.49999999999999994,0.5027527527527527,0.7565065065065064,0.5018609274988227,0.4936672654655807,0.4984285888693165,0
0.4994997498749374,0.5025025025025024,0.7567567567567567,0.5019690601182483,0.4937126114027591,0.4983675462615763,0
0.49999999999999994,0.5025025025025024,0.756006006006006,0.5018312782322061,0.4936515687950189,0.4984285888693165,0
0.49999999999999994,0.5025025025025024,0.7565065065065064,0.5018766241693845,0.4937283080733209,0.4983814988576312,0
0.49999999999999994,0.5027527527527527,0.7562562562562563,0.5018016289655894,0.49368296213614243,0.49844428553987824,0
0.4994997498749374,0.5025025025025024,0.7565065065065064,0.5019080175105081,0.4936201754538954,0.4983065036538361,0
0.4997498749374687,0.5027527527527527,0.7565065065065064,0.5018766241693845,0.4936672654655807,0.49833615292045275,0
0.4997498749374687,0.5025025025025024,0.7562562562562563,0.5018609274988227,0.4936672654655807,0.49832220032439783,0
0.4997498749374687,0.5025025025025024,0.7562562562562563,0.5018609274988227,0.49368296213614243,0.49841289219875473,0
0.4997498749374687,0.5027527527527527,0.756006006006006,0.5019219701065629,0.49369691473219735,0.49845823813593315,0
0.49999999999999994,0.5027527527527527,0.7567567567567567,0.5018766241693845,0.4936201754538954,0.49835184959101453,0
0.49999999999999994,0.5025025025025024,0.7562562562562563,0.5019219701065629,0.49368296213614243,0.49839719552819295,0
0.4997498749374687,0.5025025025025024,0.7562562562562563,0.5018469749027679,0.4936672654655807,0.49845823813593315,0
0.4997498749374687,0.5025025025025024,0.7562562562562563,0.5018923208399463,0.4936201754538954,0.4983675462615763,0
0.49999999999999994,0.5025025025025024,0.7565065065065064,0.5019080175105081,0.4936672654655807,0.4983814988576312,0
0.4994997498749374,0.5025025025025024,0.7562562562562563,0.5018312782322061,0.4936672654655807,0.4984285888693165,0
0.4997498749374687,0.5027527527527527,0.7567567567567567,0.5018766241693845,0.49368296213614243,0.49835184959101453,0
0.4997498749374687,0.5025025025025024,0.7562562562562563,0.5019376667771247,0.4936201754538954,0.4983814988576312,0
0.4994997498749374,0.5027527527527527,0.7562562562562563,0.5018923208399463,0.4936515687950189,0.4983814988576312,0
0.49999999999999994,0.5025025025025024,0.7565065065065064,0.5018766241693845,0.4936672654655807,0.49841289219875473,0
0.4997498749374687,0.5025025025025024,0.7562562562562563,0.5018609274988227,0.4936672654655807,0.4983675462615763,0
0.4994997498749374,0.5025025025025024,0.7562562562562563,0.5019533634476865,0.4936201754538954,0.4983814988576312,0
0.4997498749374687,0.5025025025025024,0.7565065065065064,0.5019533634476865,0.4936672654655807,0.49847393480649493,0
0.49999999999999994,0.5027527527527527,0.7562562562562563,0.5018923208399463,0.49375795733993755,0.49844428553987824,0
0.49999999999999994,0.5022522522522521,0.756006006006006,0.5018609274988227,0.49368296213614243,0.4983814988576312,0
0.49999999999999994,0.5022522522522521,0.7562562562562563,0.5018923208399463,0.4936672654655807,0.49839719552819295,0
0.4997498749374687,0.5027527527527527,0.7565065065065064,0.5018923208399463,0.49368296213614243,0.49847393480649493,0
0.4997498749374687,0.5027527527527527,0.7565065065065064,0.5018923208399463,0.49368296213614243,0.4983675462615763,0
0.4997498749374687,0.5022522522522521,0.7565065065065064,0.5018609274988227,0.4936672654655807,0.4983675462615763,0
0.4997498749374687,0.5025025025025024,0.7562562562562563,0.5018609274988227,0.4936201754538954,0.4983814988576312,0
0.4997498749374687,0.5025025025025024,0.7565065065065064,0.5018766241693845,0.49363587212445714,0.49841289219875473,0
0.49999999999999994,0.5027527527527527,0.7565065065065064,0.5019080175105081,0.4936201754538954,0.4983814988576312,0
0.49999999999999994,0.5025025025025024,0.756006006006006,0.5019376667771247,0.4936201754538954,0.49844428553987824,0
0.4997498749374687,0.5022522522522521,0.7565065065065064,0.5018766241693845,0.4936201754538954,0.49839719552819295,0
0.49999999999999994,0.5025025025025024,0.7565065065065064,0.5019080175105081,0.4936201754538954,0.49847393480649493,0
0.4997498749374687,0.5025025025025024,0.7567567567567567,0.5019080175105081,0.4937283080733209,0.4983675462615763,0
0.49999999999999994,0.5022522522522521,0.756006006006006,0.5018766241693845,0.49368296213614243,0.49839719552819295,0
0.4994997498749374,0.5027527527527527,0.7567567567567567,0.5019376667771247,0.49368296213614243,0.4983675462615763,0
0.4997498749374687,0.5025025025025024,0.7562562562562563,0.5019376667771247,0.4937126114027591,0.49839719552819295,0
0.4997498749374687,0.5025025025025024,0.7565065065065064,0.5019533634476865,0.4936672654655807,0.4984285888693165,0
0.49999999999999994,0.5025025025025024,0.756006006006006,0.5018609274988227,0.4936515687950189,0.49835184959101453,0
0.4997498749374687,0.5025025025025024,0.7565065065065064,0.5019690601182483,0.49363587212445714,0.4983675462615763,0
0.49999999999999994,0.5025025025025024,0.7567567567567567,0.5019080175105081,0.49363587212445714,0.49841289219875473,0
0.4997498749374687,0.5025025025025024,0.7565065065065064,0.5019080175105081,0.4937283080733209,0.4983814988576312,0
0.49999999999999994,0.5025025025025024,0.756006006006006,0.5019533634476865,0.4936201754538954,0.4983814988576312,0
0.4997498749374687,0.5022522522522521,0.7565065065065064,0.5018609274988227,0.49368296213614243,0.4983814988576312,0
0.4997498749374687,0.5025025025025024,0.7562562562562563,0.5018312782322061,0.4936515687950189,0.4984896314770567,0
0.49999999999999994,0.5025025025025024,0.7562562562562563,0.5018609274988227,0.4936672654655807,0.49841289219875473,0
0.4997498749374687,0.5027527527527527,0.756006006006006,0.5018469749027679,0.49368296213614243,0.49835184959101453,0
0.4997498749374687,0.5025025025025024,0.7562562562562563,0.5018469749027679,0.4936672654655807,0.49835184959101453,0
0.4997498749374687,0.5027527527527527,0.7567567567567567,0.5018923208399463,0.49363587212445714,0.49839719552819295,0
0.4997498749374687,0.5025025025025024,0.7562562562562563,0.5019376667771247,0.49369691473219735,0.49845823813593315,0
0.4994997498749374,0.5025025025025024,0.7565065065065064,0.5018155815616443,0.49368296213614243,0.4983675462615763,0
0.4997498749374687,0.5025025025025024,0.7562562562562563,0.5018766241693845,0.49368296213614243,0.49839719552819295,0
0.4997498749374687,0.5025025025025024,0.7565065065065064,0.5018469749027679,0.49363587212445714,0.49839719552819295,0
0.4994997498749374,0.5025025025025024,0.756006006006006,0.5018766241693845,0.4936515687950189,0.49844428553987824,0
0.4997498749374687,0.5027527527527527,0.7562562562562563,0.5018016289655894,0.4937422606693758,0.49841289219875473,0
0.5005002501250625,0.5025025025025024,0.7562562562562563,0.5019080175105081,0.4935591328461552,0.49835184959101453,0
0.4997498749374687,0.5025025025025024,0.7565065065065064,0.5018766241693845,0.4936515687950189,0.49841289219875473,0
0.4997498749374687,0.5025025025025024,0.7565065065065064,0.5018609274988227,0.4937283080733209,0.49841289219875473,0
0.5002501250625312,0.5025025025025024,0.756006006006006,0.5018016289655894,0.4937422606693758,0.49841289219875473,0
0.4997498749374687,0.5025025025025024,0.7565065065065064,0.5018923208399463,0.49363587212445714,0.4983814988576312,0
0.4994997498749374,0.5027527527527527,0.7567567567567567,0.5018609274988227,0.4936672654655807,0.49833615292045275,0
0.5002501250625312,0.5027527527527527,0.7567567567567567,0.5019987093848649,0.4936201754538954,0.4983675462615763,0
0.49999999999999994,0.5027527527527527,0.756006006006006,0.5018155815616443,0.49363587212445714,0.4983814988576312,0
0.49924962481240615,0.5025025025025024,0.7565065065065064,0.5018923208399463,0.49363587212445714,0.4983675462615763,0
0.4987493746873436,0.5027527527527527,0.7565065065065064,0.50198475678881,0.4935905261872787,0.4983065036538361,0
0.4997498749374687,0.5027527527527527,0.7572572572572571,0.5021207946003453,0.4929033608315747,0.49847393480649493,0
0.49924962481240615,0.5025025025025024,0.7547547547547546,0.5016934963461639,0.49412421298637876,0.49844428553987824,0
0.5005002501250625,0.5025025025025024,0.7567567567567567,0.5017859322950277,0.49417130299806405,0.4984285888693165,0
0.5007503751875937,0.502002002002002,0.7562562562562563,0.5018469749027679,0.49386608995936304,0.4982908069832743,0
0.4994997498749374,0.5025025025025024,0.7565065065065064,0.5016934963461639,0.49368296213614243,0.49844428553987824,0
0.4994997498749374,0.5025025025025024,0.7562562562562563,0.5020301027259885,0.4936201754538954,0.4983675462615763,0
0.49999999999999994,0.5025025025025024,0.7567567567567567,0.50198475678881,0.4934230950346199,0.4983814988576312,0
0.4997498749374687,0.5027527527527527,0.7565065065065064,0.5019219701065629,0.49339170169349633,0.49835184959101453,0
0.4994997498749374,0.5027527527527527,0.7562562562562563,0.5018016289655894,0.4936672654655807,0.49839719552819295,0
0.5002501250625312,0.5025025025025024,0.7562562562562563,0.5019080175105081,0.4937893506810611,0.4984285888693165,0
0.5007503751875937,0.5025025025025024,0.7565065065065064,0.5017545389539041,0.4937893506810611,0.4983675462615763,0
0.4994997498749374,0.5025025025025024,0.756006006006006,0.5018609274988227,0.4936515687950189,0.49839719552819295,0
0.4989994997498749,0.5027527527527527,0.7562562562562563,0.5019376667771247,0.4935591328461552,0.49839719552819295,0
0.49999999999999994,0.5025025025025024,0.7565065065065064,0.5019987093848649,0.4935905261872787,0.49839719552819295,0
0.5005002501250625,0.5022522522522521,0.7562562562562563,0.5018609274988227,0.49363587212445714,0.49832220032439783,0
0.4997498749374687,0.5025025025025024,0.7565065065065064,0.5019376667771247,0.49368296213614243,0.49844428553987824,0
0.4994997498749374,0.5027527527527527,0.7562562562562563,0.5018609274988227,0.4937422606693758,0.49847393480649493,0
0.49999999999999994,0.5025025025025024,0.7562562562562563,0.5019376667771247,0.4936201754538954,0.4983814988576312,0
0.5005002501250625,0.5025025025025024,0.7562562562562563,0.5019080175105081,0.4936201754538954,0.49833615292045275,0
0.4997498749374687,0.5025025025025024,0.7567567567567567,0.5019376667771247,0.49368296213614243,0.4983675462615763,0
0.4997498749374687,0.5025025025025024,0.756006006006006,0.5018312782322061,0.4937283080733209,0.4983814988576312,0
0.5002501250625312,0.5027527527527527,0.7562562562562563,0.5018312782322061,0.4937283080733209,0.49839719552819295,0
0.49999999999999994,0.5025025025025024,0.756006006006006,0.5018609274988227,0.49363587212445714,0.4984285888693165,0
0.49924962481240615,0.5027527527527527,0.7565065065065064,0.5018312782322061,0.49363587212445714,0.4984285888693165,0
0.4997498749374687,0.5025025025025024,0.7565065065065064,0.5018923208399463,0.4936672654655807,0.49841289219875473,0
0.49999999999999994,0.5025025025025024,0.756006006006006,0.5018312782322061,0.49369691473219735,0.49839719552819295,0
0.4997498749374687,0.5027527527527527,0.756006006006006,0.5018609274988227,0.4937283080733209,0.49833615292045275,0
0.4997498749374687,0.5027527527527527,0.7565065065065064,0.5019080175105081,0.49363587212445714,0.4984285888693165,0
0.5002501250625312,0.5025025025025024,0.7565065065065064,0.5019690601182483,0.49369691473219735,0.49839719552819295,0
0.4997498749374687,0.5025025025025024,0.7562562562562563,0.5018469749027679,0.49369691473219735,0.49839719552819295,0
0.4997498749374687,0.5025025025025024,0.7562562562562563,0.5019219701065629,0.4936515687950189,0.49845823813593315,0
0.4994997498749374,0.5025025025025024,0.7562562562562563,0.5019219701065629,0.49363587212445714,0.4984285888693165,0
0.49999999999999994,0.5025025025025024,0.7567567567567567,0.5018469749027679,0.4936201754538954,0.4983065036538361,0
0.4997498749374687,0.5025025025025024,0.7562562562562563,0.5019219701065629,0.4936672654655807,0.49845823813593315,0
0.4997498749374687,0.5027527527527527,0.7562562562562563,0.5019080175105081,0.49363587212445714,0.4984285888693165,0
0.49999999999999994,0.5025025025025024,0.7562562562562563,0.5018923208399463,0.4936201754538954,0.49839719552819295,0
0.49999999999999994,0.5025025025025024,0.7562562562562563,0.5017859322950277,0.49363587212445714,0.4984285888693165,0
0.4997498749374687,0.5025025025025024,0.7562562562562563,0.5018923208399463,0.4936201754538954,0.49841289219875473,0
0.49999999999999994,0.5027527527527527,0.7567567567567567,0.5018609274988227,0.49363587212445714,0.49841289219875473,0
0.49999999999999994,0.5025025025025024,0.7567567567567567,0.5018923208399463,0.49368296213614243,0.49844428553987824,0
0.4997498749374687,0.5025025025025024,0.7562562562562563,0.5018155815616443,0.49368296213614243,0.49841289219875473,0
0.4997498749374687,0.5025025025025024,0.756006006006006,0.5018766241693845,0.49363587212445714,0.4983814988576312,0
0.49999999999999994,0.5027527527527527,0.7562562562562563,0.5019219701065629,0.49363587212445714,0.49841289219875473,0
0.49999999999999994,0.5025025025025024,0.7565065065065064,0.5018155815616443,0.4937422606693758,0.4983065036538361,0
0.4997498749374687,0.5025025025025024,0.756006006006006,0.5018469749027679,0.49369691473219735,0.49835184959101453,0
0.49999999999999994,0.5025025025025024,0.756006006006006,0.5018609274988227,0.4936515687950189,0.4983814988576312,0
0.49999999999999994,0.5025025025025024,0.7565065065065064,0.5018609274988227,0.4937283080733209,0.4983675462615763,0
0.4997498749374687,0.5027527527527527,0.7562562562562563,0.5018469749027679,0.49363587212445714,0.49844428553987824,0
0.49999999999999994,0.5025025025025024,0.7562562562562563,0.5018766241693845,0.49368296213614243,0.49839719552819295,0
0.49999999999999994,0.5025025025025024,0.756006006006006,0.5018923208399463,0.49368296213614243,0.49841289219875473,0
0.49924962481240615,0.5025025025025024,0.7565065065065064,0.5019219701065629,0.4936672654655807,0.4984285888693165,0
0.4997498749374687,0.5025025025025024,0.756006006006006,0.5019376667771247,0.4937126114027591,0.4983814988576312,0
0.501000500250125,0.5025025025025024,0.756006006006006,0.5018766241693845,0.4937893506810611,0.4984285888693165,0
0.5002501250625312,0.5027527527527527,0.7562562562562563,0.5018766241693845,0.49377365401049933,0.4983675462615763,0
0.49849924962481235,0.5027527527527527,0.7562562562562563,0.5018312782322061,0.4936515687950189,0.49839719552819295,0
0.4997498749374687,0.5022522522522521,0.7562562562562563,0.5018923208399463,0.4936201754538954,0.4983675462615763,0
0.5012506253126563,0.5022522522522521,0.7562562562562563,0.5018469749027679,0.4936515687950189,0.49847393480649493,0
0.5005002501250625,0.5022522522522521,0.7565065065065064,0.5018609274988227,0.49375795733993755,0.4983814988576312,0
0.49774887443721855,0.5027527527527527,0.7565065065065064,0.5018469749027679,0.4936515687950189,0.49853497741423514,0
0.4997498749374687,0.5025025025025024,0.756006006006006,0.5019376667771247,0.4936201754538954,0.49844428553987824,0
0.5015007503751875,0.5022522522522521,0.7565065065065064,0.5018469749027679,0.493803303277116,0.4983065036538361,0
0.5002501250625312,0.5025025025025024,0.7565065065065064,0.5018155815616443,0.49375795733993755,0.49839719552819295,0
0.4979989994997498,0.5027527527527527,0.7565065065065064,0.5018312782322061,0.4936672654655807,0.4983814988576312,0
0.49924962481240615,0.5025025025025024,0.756006006006006,0.5018766241693845,0.49368296213614243,0.4983814988576312,0
0.5012506253126563,0.5022522522522521,0.7562562562562563,0.5018016289655894,0.4937126114027591,0.49839719552819295,0
0.4997498749374687,0.502002002002002,0.756006006006006,0.5018469749027679,0.4937422606693758,0.49841289219875473,0
0.4987493746873436,0.5027527527527527,0.7565065065065064,0.5019376667771247,0.49369691473219735,0.49833615292045275,0
0.4994997498749374,0.5030030030030029,0.7565065065065064,0.5020144060554267,0.49357482951671694,0.4983675462615763,0
0.5007503751875937,0.5027527527527527,0.755005005005005,0.5017859322950277,0.49381899994767775,0.49845823813593315,0
0.4997498749374687,0.5025025025025024,0.756006006006006,0.5020754486631669,0.4935905261872787,0.49839719552819295,0
0.49849924962481235,0.5025025025025024,0.756006006006006,0.5018923208399463,0.49368296213614243,0.4984285888693165,0
0.4994997498749374,0.5025025025025024,0.7562562562562563,0.5018155815616443,0.4937283080733209,0.49839719552819295,0
0.501000500250125,0.5025025025025024,0.7565065065065064,0.5018766241693845,0.4937126114027591,0.49841289219875473,0
0.4994997498749374,0.5027527527527527,0.7562562562562563,0.5018609274988227,0.4936672654655807,0.49845823813593315,0
0.4987493746873436,0.5025025025025024,0.7565065065065064,0.5019080175105081,0.4936201754538954,0.49844428553987824,0
0.4997498749374687,0.5022522522522521,0.7557557557557557,0.5018016289655894,0.4937283080733209,0.4984285888693165,0
0.5007503751875937,0.5022522522522521,0.7565065065065064,0.5019219701065629,0.4937283080733209,0.49839719552819295,0
0.4994997498749374,0.5027527527527527,0.7562562562562563,0.5018609274988227,0.4937283080733209,0.49835184959101453,0
0.4989994997498749,0.5030030030030029,0.7565065065065064,0.5019533634476865,0.4936672654655807,0.4983814988576312,0
0.49999999999999994,0.5022522522522521,0.756006006006006,0.5018155815616443,0.4937422606693758,0.49841289219875473,0
0.5005002501250625,0.5022522522522521,0.7562562562562563,0.5018766241693845,0.4936201754538954,0.4983675462615763,0
0.4997498749374687,0.5027527527527527,0.756006006006006,0.5018609274988227,0.49368296213614243,0.4983814988576312,0
0.4989994997498749,0.5027527527527527,0.7565065065065064,0.5019080175105081,0.4936515687950189,0.4983675462615763,0
0.49999999999999994,0.5025025025025024,0.756006006006006,0.5019080175105081,0.49368296213614243,0.4985035840731116,0
0.49999999999999994,0.5025025025025024,0.756006006006006,0.5018923208399463,0.4936062228578405,0.4983675462615763,0
0.4994997498749374,0.5027527527527527,0.7562562562562563,0.5018766241693845,0.4936672654655807,0.4985035840731116,0
0.4994997498749374,0.5027527527527527,0.757007007007007,0.5019376667771247,0.4936201754538954,0.49832220032439783,0
0.5002501250625312,0.5022522522522521,0.7562562562562563,0.5018766241693845,0.4936515687950189,0.49841289219875473,0
0.5005002501250625,0.5025025025025024,0.7562562562562563,0.5018923208399463,0.4936515687950189,0.49835184959101453,0
0.49924962481240615,0.5027527527527527,0.7562562562562563,0.5019533634476865,0.4936515687950189,0.49835184959101453,0
0.4997498749374687,0.5027527527527527,0.7565065065065064,0.5018766241693845,0.49357482951671694,0.49845823813593315,0
0.5005002501250625,0.5025025025025024,0.756006006006006,0.5019219701065629,0.4937283080733209,0.4983675462615763,0
0.4997498749374687,0.5025025025025024,0.756006006006006,0.5018609274988227,0.4937283080733209,0.49832220032439783,0
0.4994997498749374,0.5025025025025024,0.7562562562562563,0.50198475678881,0.4936201754538954,0.49839719552819295,0
0.49999999999999994,0.5025025025025024,0.7567567567567567,0.5019219701065629,0.4937283080733209,0.4983675462615763,0
0.5002501250625312,0.5022522522522521,0.7562562562562563,0.5018469749027679,0.4936672654655807,0.4983814988576312,0
0.4997498749374687,0.5025025025025024,0.756006006006006,0.5018766241693845,0.4936201754538954,0.49844428553987824,0
0.49924962481240615,0.5025025025025024,0.7562562562562563,0.5019219701065629,0.4936672654655807,0.49839719552819295,0
0.49999999999999994,0.5025025025025024,0.7565065065065064,0.5018469749027679,0.4937422606693758,0.4985035840731116,0
0.49999999999999994,0.5025025025025024,0.7562562562562563,0.5018312782322061,0.4937422606693758,0.49844428553987824,0
0.4994997498749374,0.5027527527527527,0.7562562562562563,0.5019219701065629,0.4937126114027591,0.4983675462615763,0
0.4997498749374687,0.5027527527527527,0.7565065065065064,0.5019219701065629,0.4936672654655807,0.49839719552819295,0
0.49999999999999994,0.5025025025025024,0.756006006006006,0.5018155815616443,0.49369691473219735,0.4983675462615763,0
0.49999999999999994,0.5025025025025024,0.7565065065065064,0.5018312782322061,0.4937422606693758,0.4984896314770567,0
0.49999999999999994,0.5022522522522521,0.756006006006006,0.5019533634476865,0.4937126114027591,0.4983675462615763,0
0.4994997498749374,0.5027527527527527,0.7562562562562563,0.5018923208399463,0.49368296213614243,0.49844428553987824,0
0.4997498749374687,0.5027527527527527,0.7565065065065064,0.5018923208399463,0.4937422606693758,0.4983675462615763,0
0.5005002501250625,0.5025025025025024,0.756006006006006,0.5018016289655894,0.49368296213614243,0.49839719552819295,0
0.4994997498749374,0.5025025025025024,0.7562562562562563,0.5019080175105081,0.49368296213614243,0.4983675462615763,0
0.4994997498749374,0.5025025025025024,0.7565065065065064,0.5019533634476865,0.4936515687950189,0.4984285888693165,0
0.4997498749374687,0.5025025025025024,0.7567567567567567,0.5019080175105081,0.4936515687950189,0.49835184959101453,0
0.5002501250625312,0.5025025025025024,0.7562562562562563,0.5018609274988227,0.4936672654655807,0.4984896314770567,0
0.49999999999999994,0.5025025025025024,0.756006006006006,0.5018923208399463,0.4935905261872787,0.49832220032439783,0
0.4994997498749374,0.5027527527527527,0.7565065065065064,0.5018469749027679,0.4936062228578405,0.49839719552819295,0
0.49999999999999994,0.5025025025025024,0.7567567567567567,0.5019080175105081,0.49363587212445714,0.49841289219875473,0
0.5005002501250625,0.5025025025025024,0.7557557557557557,0.5018609274988227,0.4936201754538954,0.49841289219875473,0
0.4997498749374687,0.5027527527527527,0.7562562562562563,0.5019690601182483,0.4936515687950189,0.49844428553987824,0
0.4994997498749374,0.5027527527527527,0.7562562562562563,0.5017859322950277,0.4936201754538954,0.49845823813593315,0
0.49999999999999994,0.5025025025025024,0.7567567567567567,0.5018766241693845,0.4936201754538954,0.49845823813593315,0
0.49999999999999994,0.5025025025025024,0.7562562562562563,0.5018469749027679,0.4936201754538954,0.49835184959101453,0
0.4994997498749374,0.5025025025025024,0.7562562562562563,0.5018766241693845,0.4937126114027591,0.4984285888693165,0
0.49924962481240615,0.5025025025025024,0.756006006006006,0.5018469749027679,0.4936515687950189,0.49841289219875473,0
0.49999999999999994,0.5025025025025024,0.756006006006006,0.5018923208399463,0.4937422606693758,0.49835184959101453,0
0.49999999999999994,0.5025025025025024,0.7562562562562563,0.5018312782322061,0.49363587212445714,0.49841289219875473,0
0.4997498749374687,0.5027527527527527,0.7565065065065064,0.5018312782322061,0.49368296213614243,0.49839719552819295,0
0.4994997498749374,0.5025025025025024,0.7562562562562563,0.5019376667771247,0.4936515687950189,0.49839719552819295,0
0.49999999999999994,0.5025025025025024,0.7562562562562563,0.5018766241693845,0.4936672654655807,0.49839719552819295,0
0.5002501250625312,0.5022522522522521,0.756006006006006,0.5018312782322061,0.49369691473219735,0.49841289219875473,0
0.4994997498749374,0.5025025025025024,0.756006006006006,0.5018766241693845,0.4936515687950189,0.49833615292045275,0
0.4997498749374687,0.5027527527527527,0.7565065065065064,0.5019690601182483,0.4936201754538954,0.4983814988576312,0
0.49999999999999994,0.5025025025025024,0.7562562562562563,0.5018155815616443,0.49369691473219735,0.4982594136421508,0
0.4994997498749374,0.5025025025025024,0.7562562562562563,0.5018312782322061,0.4936515687950189,0.4983814988576312,0
0.4994997498749374,0.5025025025025024,0.7562562562562563,0.5018312782322061,0.4936201754538954,0.49839719552819295,0
0.4997498749374687,0.5025025025025024,0.7562562562562563,0.5018312782322061,0.49363587212445714,0.4984285888693165,0
0.49999999999999994,0.5025025025025024,0.7562562562562563,0.5018155815616443,0.4936672654655807,0.4983675462615763,0
0.49999999999999994,0.5025025025025024,0.7562562562562563,0.5018923208399463,0.4936515687950189,0.4984896314770567,0
0.4994997498749374,0.5027527527527527,0.7562562562562563,0.5018766241693845,0.4937126114027591,0.49844428553987824,0
0.4994997498749374,0.502002002002002,0.7565065065065064,0.5018923208399463,0.49369691473219735,0.49841289219875473,0
0.4997498749374687,0.5025025025025024,0.7565065065065064,0.5018469749027679,0.4937422606693758,0.49839719552819295,0
0.5002501250625312,0.5025025025025024,0.7565065065065064,0.5018923208399463,0.4936515687950189,0.4983814988576312,0
0.4994997498749374,0.5025025025025024,0.7565065065065064,0.5018609274988227,0.49368296213614243,0.49845823813593315,0
0.4997498749374687,0.5027527527527527,0.7565065065065064,0.5018469749027679,0.4937126114027591,0.4984285888693165,0
0.4997498749374687,0.5025025025025024,0.7565065065065064,0.5018312782322061,0.4937126114027591,0.4984896314770567,0
0.49999999999999994,0.5025025025025024,0.756006006006006,0.5018609274988227,0.49369691473219735,0.49839719552819295,0
0.4994997498749374,0.5025025025025024,0.7562562562562563,0.5018766241693845,0.4937283080733209,0.49841289219875473,0
0.4997498749374687,0.5025025025025024,0.7562562562562563,0.5018312782322061,0.4936515687950189,0.4983814988576312,0
